TimeStamp[ms];Prox[Cm];Lux[lux];AccX[m/s^2];AccY[m/s^2];AccZ[m/s^2];GyroX[rad/s];GyroY[rad/s];GyroZ[rad/s];MagnX[uT];MagnY[uT];MagnZ[uT];OrienYaw[degrees];OrienPitch[degrees];OrienRoll[degrees];Press[Pa];Temp[C°];Batt[%];Lat;Lng;Speed[m/s]
1531048855687;-;-;-0.086220704;1.2070899;9.833951;0.07594665;0.001158156;-0.021408325;-15.3;36.45;-39.0;21.65951;-6.992674;-1.0875071;1020.7338;-;-;51.52527153;-0.13344369;2.4600000381469727
1531048855687;-;-;-0.086220704;1.2070899;9.833951;0.07594665;0.001158156;-0.021408325;-15.3;36.45;-39.0;21.65951;-6.992674;-1.0875071;1020.7338;-;-;51.52527153;-0.13344369;2.4600000381469727
1531048855704;-;-;0.100590825;1.2645704;9.666299;0.04239082;-0.04518085;-0.018212533;-14.400001;35.7;-38.100002;21.644138;-7.0496855;-1.1996152;1020.7338;-;-;51.52527153;-0.13344369;2.4600000381469727
1531048855704;-;-;0.100590825;1.2645704;9.666299;0.04239082;-0.04518085;-0.018212533;-14.400001;35.7;-38.100002;21.644138;-7.0496855;-1.1996152;1020.7338;-;-;51.52527153;-0.13344369;2.4600000381469727
1531048855712;-;-;0.06227051;1.2837305;9.666299;0.031205542;-0.05956192;-0.010223049;-15.6;36.15;-39.0;21.656435;-7.1376863;-1.2438172;1020.7338;-;-;51.52527153;-0.13344369;2.4600000381469727
1531048855721;-;-;0.0;1.341211;9.623189;-2.1975941E-4;-0.06701877;-0.019810429;-15.6;36.15;-39.0;21.656435;-7.1376863;-1.2438172;1020.7338;-;-;51.52527153;-0.13344369;2.4600000381469727
1531048855732;-;-;-0.20597169;1.336421;9.656719;-0.023655578;-0.059029285;-0.013951475;-14.85;34.5;-38.25;21.6772;-7.1902404;-1.1968251;1020.7338;-;-;51.52527153;-0.13344369;2.4600000381469727
1531048855742;-;-;-0.78556645;1.1639795;9.474698;-0.07904933;0.020332918;0.032387532;-14.85;34.5;-38.25;21.6772;-7.1902404;-1.1968251;1020.7338;-;-;51.52527153;-0.13344369;2.4600000381469727
1531048855752;-;-;-0.028740235;1.3172607;9.484278;-0.11899675;0.10129302;0.061149668;-15.450001;36.300003;-38.850002;21.6772;-7.1902404;-1.1968251;1020.7338;-;-;51.52527153;-0.13344369;2.4600000381469727
1531048855762;-;-;0.1820215;1.341211;9.977652;-0.15894416;0.09916249;0.014278034;-15.450001;36.300003;-38.850002;21.707333;-7.1915526;-1.1288384;1020.7258;-;-;51.52527153;-0.13344369;2.4600000381469727
1531048855772;-;-;0.023950197;1.2310401;10.207574;-0.15361783;0.074661404;0.007886447;-15.450001;36.0;-39.300003;21.679293;-7.100317;-1.156495;1020.7258;-;-;51.52527153;-0.13344369;2.4600000381469727
1531048855782;-;-;-0.34967285;1.1304493;10.854229;-0.072125115;-0.056366127;0.032920163;-15.450001;36.0;-39.300003;21.679293;-7.100317;-1.156495;1020.7258;-;-;51.52527153;-0.13344369;2.4600000381469727
1531048855793;-;-;-0.23950197;1.1448194;10.710527;-0.02791623;-0.07873394;0.045714278;-14.250001;35.850002;-41.550003;21.679293;-7.100317;-1.156495;1020.7258;-;-;51.52527153;-0.13344369;2.4600000381469727
1531048855802;-;-;0.22513184;1.3124708;10.279425;0.02694489;-0.036655992;0.045714278;-14.250001;35.850002;-41.550003;21.642492;-6.9268255;-1.2586327;1020.7258;-;-;51.52527153;-0.13344369;2.4600000381469727
1531048855812;-;-;0.31135255;1.341211;10.049502;0.039728064;0.038445152;0.02920268;-14.700001;36.300003;-38.850002;21.614086;-6.82892;-1.2208397;1020.7258;-;-;51.52527153;-0.13344369;2.4600000381469727
1531048855822;-;-;0.19639161;1.3076807;9.718989;0.03386911;0.13591686;-0.019799484;-14.700001;36.300003;-38.850002;21.614086;-6.82892;-1.2208397;1020.7258;-;-;51.52527153;-0.13344369;2.4600000381469727
1531048855832;-;-;-0.19639161;1.2070899;9.489068;-7.5198594E-4;0.20036535;-0.030452128;-14.250001;36.45;-39.0;21.564539;-6.857894;-1.1862787;1020.7258;-;-;51.52527153;-0.13344369;2.4600000381469727
1531048855842;-;-;-0.27303225;1.0873389;8.909473;-0.07904892;0.23498645;0.02440899;-14.250001;36.45;-39.0;21.564539;-6.857894;-1.1862787;1020.7258;-;-;51.52527153;-0.13344369;2.4600000381469727
1531048855853;-;-;-0.28261232;1.2502003;8.57896;-0.16799851;0.24936752;0.027072152;-13.950001;34.800003;-39.0;21.5578;-6.887501;-1.3424327;1020.7258;-;-;51.52527153;-0.13344369;2.4600000381469727
1531048855863;-;-;-0.38320315;1.4130616;8.737032;-0.3166029;0.21208327;0.03879006;-13.950001;34.800003;-39.0;21.5578;-6.887501;-1.3424327;1020.7255;-;-;51.52527153;-0.13344369;2.4600000381469727
1531048855873;-;-;-0.56522465;1.3843213;8.387359;-0.42632514;0.22699696;0.06968273;-14.1;36.600002;-38.850002;21.520388;-6.8062096;-1.598217;1020.7255;-;-;51.52527153;-0.13344369;2.4600000381469727
1531048855883;-;-;0.60833496;0.50774413;10.317744;-0.50462204;-0.1591614;0.04358375;-14.1;36.600002;-38.850002;21.520388;-6.8062096;-1.598217;1020.7255;-;-;51.52527153;-0.13344369;2.4600000381469727
1531048855894;-;-;0.852627;0.42152345;10.6817875;-0.443902;-0.28379735;-9.209197E-5;-14.700001;36.600002;-38.850002;21.442154;-6.4681463;-1.8657799;1020.7255;-;-;51.52527153;-0.13344369;2.4600000381469727
1531048855904;-;-;0.6610254;0.57001466;11.294912;-0.24309964;-0.29178685;-0.040572144;-14.700001;36.600002;-38.850002;21.442154;-6.4681463;-1.8657799;1020.7255;-;-;51.52527153;-0.13344369;2.4600000381469727
1531048855914;-;-;0.56522465;0.8765772;11.534414;-0.03750361;-0.29178685;-0.08371535;-14.700001;37.350002;-40.050003;21.394367;-5.908729;-1.7742878;1020.7255;-;-;51.52527153;-0.13344369;2.4600000381469727
1531048855925;-;-;0.28261232;0.8286768;11.247012;0.20750722;-0.26036155;-0.13804384;-14.700001;37.350002;-40.050003;21.394367;-5.908729;-1.7742878;1020.7255;-;-;51.52527153;-0.13344369;2.4600000381469727
1531048855935;-;-;0.019160157;0.92926764;10.97398;0.31563157;-0.20177197;-0.14922912;-14.250001;36.9;-39.45;21.468466;-5.5869184;-1.4403741;1020.7255;-;-;51.52527153;-0.13344369;2.4600000381469727
1531048855945;-;-;-0.29698244;0.97237796;10.605147;0.42588642;-0.13359505;-0.14017437;-14.250001;36.9;-39.45;21.468466;-5.5869184;-1.4403741;1020.7255;-;-;51.52527153;-0.13344369;2.4600000381469727
1531048855955;-;-;-0.3305127;1.0442286;10.418335;0.45624647;-0.09737607;-0.12632594;-14.700001;37.050003;-39.600002;21.634317;-5.719184;-1.1431029;1020.7255;-;-;51.52527153;-0.13344369;2.4600000381469727
1531048855965;-;-;-0.40715334;0.9436377;10.265054;0.5015202;-0.008959117;-0.10448801;-14.700001;37.050003;-39.600002;21.634317;-5.719184;-1.1431029;1020.71826;-;-;51.52527153;-0.13344369;2.4600000381469727
1531048855975;-;-;-0.44547364;1.0154883;10.049502;0.49725914;-0.007893853;-0.077323765;-13.950001;35.4;-38.7;21.81726;-6.1609344;-0.98418003;1020.71826;-;-;51.52527153;-0.13344369;2.4600000381469727
1531048855986;-;-;-0.31135255;1.0777588;9.881851;0.47062755;-0.029731775;-0.053355318;-13.950001;35.4;-38.7;21.81726;-6.1609344;-0.98418003;1020.71826;-;-;51.52527153;-0.13344369;2.4600000381469727
1531048855996;-;-;-0.05269043;1.1543995;9.848321;0.44293067;-0.07447288;-0.043235302;-14.85;36.9;-39.9;21.939478;-6.7268953;-0.9734404;1020.71826;-;-;51.52527153;-0.13344369;2.4600000381469727
1531048856006;-;-;0.033530276;1.0633887;9.766891;0.40245062;-0.11868136;-0.044300567;-14.85;36.9;-39.9;21.939478;-6.7268953;-0.9734404;1020.71826;-;-;51.52527153;-0.13344369;2.4600000381469727
1531048856016;-;-;0.17244141;1.1304493;9.82437;0.3688948;-0.14051928;-0.030452128;-15.3;35.4;-40.2;22.010612;-7.2828126;-0.9621688;1020.71826;-;-;51.52527153;-0.13344369;2.4600000381469727
1531048856026;-;-;0.05269043;1.1639795;10.025552;0.34545895;-0.1905867;-0.025658438;-15.3;35.4;-40.2;22.010612;-7.2828126;-0.9621688;1020.71826;-;-;51.52527153;-0.13344369;2.4600000381469727
1531048856036;-;-;0.033530276;1.2406201;10.183623;0.36516637;-0.1905867;-0.016071059;-14.1;34.65;-39.600002;22.068287;-7.76103;-0.8542339;1020.71826;-;-;51.52527153;-0.13344369;2.4600000381469727
1531048856046;-;-;0.14849122;1.3507911;10.078242;0.37635162;-0.19165197;0.00523423;-14.1;34.65;-39.600002;22.068287;-7.76103;-0.8542339;1020.71826;-;-;51.52527153;-0.13344369;2.4600000381469727
1531048856057;-;-;0.25387207;1.4322218;9.972861;0.38487375;-0.17354247;0.002038437;-14.1;36.300003;-38.850002;22.116432;-8.164769;-0.66514295;1020.7235;-;-;51.52527153;-0.13344369;2.4600000381469727
1531048856067;-;-;0.39757326;1.5950831;9.867481;0.38327587;-0.14584559;0.017484771;-14.1;36.300003;-38.850002;22.116432;-8.164769;-0.66514295;1020.7235;-;-;51.52527153;-0.13344369;2.4600000381469727
1531048856077;-;-;0.45984375;1.575923;9.570498;0.3577095;-0.14957403;0.019615302;-15.750001;35.25;-39.600002;22.149107;-8.59222;-0.45152372;1020.7235;-;-;51.52527153;-0.13344369;2.4600000381469727
1531048856087;-;-;0.57001466;1.6669337;9.422008;0.32415366;-0.2102941;0.022278462;-15.750001;35.25;-39.600002;22.149107;-8.59222;-0.45152372;1020.7235;-;-;51.52527153;-0.13344369;2.4600000381469727
1531048856097;-;-;0.57001466;1.695674;9.096285;0.27941257;-0.28166682;0.0073647588;-15.3;35.4;-38.25;22.166016;-9.032082;-0.2655411;1020.7235;-;-;51.52527153;-0.13344369;2.4600000381469727
1531048856107;-;-;0.68976563;1.6573536;8.957374;0.2288125;-0.32853848;-0.022995276;-15.3;35.4;-38.25;22.166016;-9.032082;-0.2655411;1020.7235;-;-;51.52527153;-0.13344369;2.4600000381469727
1531048856118;-;-;0.6562354;1.7244141;8.928633;0.17288612;-0.3503764;-0.051224787;-15.450001;35.25;-37.65;22.179565;-9.428668;-0.068479806;1020.7235;-;-;51.52527153;-0.13344369;2.4600000381469727
1531048856127;-;-;0.87178713;1.1543995;9.067544;0.10950289;-0.340789;-0.06826902;-15.450001;35.25;-37.65;22.179565;-9.428668;-0.068479806;1020.7235;-;-;51.52527153;-0.13344369;2.4600000381469727
1531048856137;-;-;0.100590825;1.954336;9.010064;0.07541443;-0.27314472;-0.04962689;-14.55;34.800003;-38.7;22.240528;-9.729695;0.26580992;1020.7235;-;-;51.52527153;-0.13344369;2.4600000381469727
1531048856147;-;-;0.51732427;1.9208057;8.349038;-0.040699404;0.0038240561;-0.045898464;-14.55;34.800003;-38.7;22.240528;-9.729695;0.26580992;1020.7235;-;-;51.52527153;-0.13344369;2.4600000381469727
1531048856157;-;-;-0.07185059;1.6573536;9.144185;-0.099821575;0.08212099;-0.05388795;-14.250001;34.050003;-39.45;22.371178;-9.906497;0.63744974;1020.72375;-;-;51.52527153;-0.13344369;2.4600000381469727
1531048856167;-;-;-0.047900394;1.5232325;9.474698;-0.15894376;0.039510414;0.024941623;-14.250001;34.050003;-39.45;22.371178;-9.906497;0.63744974;1020.72375;-;-;51.52527153;-0.13344369;2.4600000381469727
1531048856177;-;-;0.5221143;1.8010547;9.685459;-0.19995643;-0.011089646;0.04092059;-15.750001;35.25;-38.4;22.447962;-9.935145;0.78936535;1020.72375;-;-;51.52527153;-0.13344369;2.4600000381469727
1531048856188;-;-;0.5748047;1.8872755;9.924961;-0.24842598;-0.05742865;0.032398473;-15.750001;35.25;-38.4;22.447962;-9.935145;0.78936535;1020.72375;-;-;51.52527153;-0.13344369;2.4600000381469727
1531048856198;-;-;0.4263135;1.7675245;10.126143;-0.27026388;-0.05636339;0.015354244;-15.3;34.050003;-38.25;22.45347;-9.78813;0.72158563;1020.72375;-;-;51.52527153;-0.13344369;2.4600000381469727
1531048856208;-;-;0.22513184;1.7148341;10.279425;-0.27345967;-0.04038442;0.021213198;-15.3;34.050003;-38.25;22.45347;-9.78813;0.72158563;1020.72375;-;-;51.52527153;-0.13344369;2.4600000381469727
1531048856218;-;-;0.22992188;1.590293;10.332115;-0.25321966;-0.06754866;0.020147933;-15.750001;35.25;-38.850002;22.417114;-9.539262;0.7627424;1020.72375;-;-;51.52527153;-0.13344369;2.4600000381469727
1531048856228;-;-;0.20597169;1.5471827;10.130933;-0.1994238;-0.052102327;0.022811094;-15.750001;35.25;-38.850002;22.417114;-9.539262;0.7627424;1020.72375;-;-;51.52527153;-0.13344369;2.4600000381469727
1531048856239;-;-;0.29698244;1.6142433;10.078242;-0.16853113;-0.049971797;4.4054026E-4;-16.050001;34.2;-38.100002;22.411053;-9.225717;0.82729906;1020.72375;-;-;51.52527153;-0.13344369;2.4600000381469727
1531048856249;-;-;0.2682422;1.695674;10.284214;-0.14669321;-0.0483739;0.012691082;-16.050001;34.2;-38.100002;22.411053;-9.225717;0.82729906;1020.72375;-;-;51.52527153;-0.13344369;2.4600000381469727
1531048856259;-;-;0.2778223;1.5950831;10.298584;-0.12858371;-0.07926657;0.010027921;-14.700001;34.65;-37.65;22.397501;-8.960359;0.8943206;1020.731;-;-;51.52527153;-0.13344369;2.4600000381469727
1531048856269;-;-;0.17723145;1.5663428;10.327325;-0.089168936;-0.112822406;0.013223713;-14.700001;34.65;-37.65;22.397501;-8.960359;0.8943206;1020.731;-;-;51.52527153;-0.13344369;2.4600000381469727
1531048856279;-;-;0.25387207;1.5280225;10.197993;-0.029514126;-0.10802872;0.008430025;-15.900001;33.75;-36.600002;22.400698;-8.772475;0.95047414;1020.731;-;-;51.52527153;-0.13344369;2.4600000381469727
1531048856289;-;-;0.33530274;1.5998731;10.150093;8.4591075E-4;-0.09418028;-0.0011573564;-15.900001;33.75;-36.600002;22.400698;-8.772475;0.95047414;1020.731;-;-;51.52527153;-0.13344369;2.4600000381469727
1531048856299;-;-;0.3305127;1.5280225;9.992022;0.04132579;-0.05476665;-0.0059556765;-16.35;35.100002;-41.100002;22.407137;-8.643496;1.0522197;1020.731;-;-;51.52527153;-0.13344369;2.4600000381469727
1531048856310;-;-;0.1820215;1.5615528;9.905801;0.04878264;-0.044114005;-0.0016946187;-16.800001;34.95;-39.300003;22.417229;-8.616973;1.1663461;1020.731;-;-;51.52527153;-0.13344369;2.4600000381469727
1531048856320;-;-;0.364043;1.5184424;9.623189;0.05570686;-0.03133083;9.685424E-4;-16.800001;34.95;-39.300003;22.417229;-8.616973;1.1663461;1020.731;-;-;51.52527153;-0.13344369;2.4600000381469727
1531048856330;-;-;0.42152345;1.5136524;9.513018;0.04398895;-0.0031013216;9.685424E-4;-15.150001;33.9;-38.100002;22.429472;-8.663764;1.2281495;1020.731;-;-;51.52527153;-0.13344369;2.4600000381469727
1531048856340;-;-;0.4263135;1.6094532;9.532178;0.015759442;0.0666735;-0.02353254;-15.150001;33.9;-38.100002;22.429472;-8.663764;1.2281495;1020.731;-;-;51.52527153;-0.13344369;2.4600000381469727
1531048856350;-;-;0.34967285;1.6286134;9.570498;-0.016731124;0.09916407;-0.032054655;-14.85;33.45;-37.800003;22.429472;-8.663764;1.2281495;1020.731;-;-;51.52527153;-0.13344369;2.4600000381469727
1531048856360;-;-;0.43589357;1.6094532;9.74773;-0.044960633;0.13112201;-0.041642033;-14.85;33.45;-37.800003;22.430462;-8.722226;1.2507901;1020.7272;-;-;51.52527153;-0.13344369;2.4600000381469727
1531048856371;-;-;0.2921924;1.5040723;9.81958;-0.06360276;0.12792622;-0.045903094;-15.900001;33.45;-37.5;22.442715;-8.732089;1.1658128;1020.7272;-;-;51.52527153;-0.13344369;2.4600000381469727
1531048856380;-;-;0.2778223;1.346001;9.766891;-0.06679856;0.13911149;-0.035783082;-15.900001;33.45;-37.5;22.442715;-8.732089;1.1658128;1020.7272;-;-;51.52527153;-0.13344369;2.4600000381469727
1531048856390;-;-;0.1580713;1.341211;9.6758795;-0.06466803;0.14869887;-0.03738098;-16.050001;34.95;-38.4;22.462368;-8.677272;1.0156085;1020.7272;-;-;51.52527153;-0.13344369;2.4600000381469727
1531048856400;-;-;0.23950197;1.3891114;9.551338;-0.077983834;0.14337255;-0.019804114;-16.050001;34.95;-38.4;22.462368;-8.677272;1.0156085;1020.7272;-;-;51.52527153;-0.13344369;2.4600000381469727
1531048856410;-;-;0.2921924;1.4465919;9.560919;-0.103017546;0.109816715;-0.02140201;-15.150001;33.600002;-37.2;22.475698;-8.606887;0.8495901;1020.7272;-;-;51.52527153;-0.13344369;2.4600000381469727
1531048856420;-;-;0.29698244;1.3939015;9.75731;-0.14722602;0.061347175;-0.009684103;-15.150001;33.600002;-37.2;22.475698;-8.606887;0.8495901;1020.7272;-;-;51.52527153;-0.13344369;2.4600000381469727
1531048856431;-;-;0.3065625;1.3843213;9.718989;-0.16906394;0.032052405;-6.2935427E-4;-14.400001;32.850002;-37.65;22.478146;-8.504293;0.7015575;1020.7272;-;-;51.52527153;-0.13344369;2.4600000381469727
1531048856440;-;-;0.25387207;1.2693604;9.800421;-0.18397765;0.007018691;0.018545406;-14.400001;32.850002;-37.65;22.478146;-8.504293;0.7015575;1020.7272;-;-;51.52527153;-0.13344369;2.4600000381469727
1531048856450;-;-;0.244292;1.2789404;9.848321;-0.18610817;0.011812381;0.014816981;-15.3;34.5;-37.800003;22.478146;-8.504293;0.7015575;1020.7272;-;-;51.52527153;-0.13344369;2.4600000381469727
1531048856460;-;-;0.2778223;1.3028907;10.135723;-0.1584113;0.00914922;0.023339096;-15.3;34.5;-37.800003;22.478754;-8.329454;0.6402722;1020.7239;-;-;51.52527153;-0.13344369;2.4600000381469727
1531048856470;-;-;0.25866213;1.2933106;10.269844;-0.12432284;-0.012688702;0.0153496135;-16.95;35.100002;-37.050003;22.462725;-8.121822;0.6308427;1020.7239;-;-;51.52527153;-0.13344369;2.4600000381469727
1531048856480;-;-;0.23471193;1.1687696;10.303374;-0.06839646;-0.03559189;0.028665418;-16.95;35.100002;-37.050003;22.462725;-8.121822;0.6308427;1020.7239;-;-;51.52527153;-0.13344369;2.4600000381469727
1531048856491;-;-;0.2682422;1.1543995;10.087823;-0.018861653;-0.044646636;0.042513855;-17.550001;34.2;-39.300003;22.438961;-7.949147;0.6347528;1020.7239;-;-;51.52527153;-0.13344369;2.4600000381469727
1531048856501;-;-;0.3879932;1.1112891;9.867481;0.046119478;0.011279749;0.04304649;-17.550001;34.2;-39.300003;22.438961;-7.949147;0.6347528;1020.7239;-;-;51.52527153;-0.13344369;2.4600000381469727
1531048856511;-;-;0.51732427;1.1927198;9.656719;0.07381635;0.08531563;0.012153819;-16.050001;35.25;-37.65;22.411325;-7.8834524;0.6851066;1020.7239;-;-;51.52527153;-0.13344369;2.4600000381469727
1531048856521;-;-;0.47900394;1.3028907;9.359736;0.07647951;0.17746101;0.008425394;-16.050001;35.25;-37.65;22.411325;-7.8834524;0.6851066;1020.7239;-;-;51.52527153;-0.13344369;2.4600000381469727
1531048856532;-;-;0.45026368;1.2070899;9.172925;0.033336304;0.20142946;0.023339096;-17.550001;36.0;-39.600002;22.3725;-7.928956;0.6725566;1020.7239;-;-;51.52527153;-0.13344369;2.4600000381469727
1531048856541;-;-;0.38320315;1.2406201;9.034014;-0.06573329;0.20941894;0.010555923;-17.550001;36.0;-39.600002;22.3725;-7.928956;0.6725566;1020.7239;-;-;51.52527153;-0.13344369;2.4600000381469727
1531048856551;-;-;0.21076173;1.2597803;9.326206;-0.1104744;0.1641452;0.012153819;-16.5;35.25;-38.850002;22.334127;-8.005599;0.48305202;1020.7287;-;-;51.52527153;-0.13344369;2.4600000381469727
1531048856561;-;-;0.07185059;1.2310401;9.73815;-0.21060926;-0.01694976;0.048372813;-16.5;35.25;-38.850002;22.334127;-8.005599;0.48305202;1020.7287;-;-;51.52527153;-0.13344369;2.4600000381469727
1531048856572;-;-;0.07185059;1.341211;9.848321;-0.24629562;-0.097377226;0.0728739;-17.1;35.25;-40.5;22.293474;-7.9312835;0.2720422;1020.7287;-;-;51.52527153;-0.13344369;2.4600000381469727
1531048856582;-;-;0.39278322;1.2837305;9.910591;-0.27665564;-0.16661942;0.08405917;-17.1;35.25;-40.5;22.293474;-7.9312835;0.2720422;1020.7287;-;-;51.52527153;-0.13344369;2.4600000381469727
1531048856592;-;-;0.5843848;1.1543995;10.059082;-0.28091672;-0.17034784;0.07180863;-17.25;35.850002;-38.25;22.23808;-7.694329;0.29237583;1020.7287;-;-;51.52527153;-0.13344369;2.4600000381469727
1531048856603;-;-;0.5891748;1.0442286;10.068663;-0.23990403;-0.06701719;0.047840178;-17.25;35.850002;-38.25;22.23808;-7.694329;0.29237583;1020.7287;-;-;51.52527153;-0.13344369;2.4600000381469727
1531048856613;-;-;0.4167334;1.1543995;10.150093;-0.17385763;0.02139976;0.008958026;-16.5;34.2;-39.600002;22.173677;-7.3758783;0.4841656;1020.7287;-;-;51.52527153;-0.13344369;2.4600000381469727
1531048856648;-;-;0.28740236;1.2837305;10.902129;-0.048689056;0.04483558;-0.008086205;-17.25;35.4;-41.100002;22.140589;-7.103956;0.5728689;1020.7261;-;-;51.52527153;-0.13344369;2.4600000381469727
1531048856647;-;-;0.28740236;1.2837305;10.902129;-0.048689056;0.04483558;-0.008086205;-17.25;35.4;-41.100002;22.140589;-7.103956;0.5728689;1020.7261;-;-;51.52527153;-0.13344369;2.4600000381469727
1531048856650;-;-;0.28740236;1.2837305;10.902129;-0.048689056;0.04483558;-0.008086205;-18.0;37.5;-39.0;22.140589;-7.103956;0.5728689;1020.7261;-;-;51.52527153;-0.13344369;2.4600000381469727
1531048856660;-;-;0.29698244;1.2406201;10.916499;0.03440157;-0.019080289;-0.008618837;-18.0;37.5;-39.0;22.134531;-6.953301;0.49858308;1020.7261;-;-;51.52527153;-0.13344369;2.4600000381469727
1531048856664;-;-;0.3161426;1.1543995;10.777588;0.077012144;-0.027602404;-0.011281999;-18.0;37.5;-39.0;22.134531;-6.953301;0.49858308;1020.7261;-;-;51.52527153;-0.13344369;2.4600000381469727
1531048856673;-;-;0.2921924;1.21188;10.518927;0.14785223;-0.0020360572;-0.024065172;-17.550001;34.65;-38.850002;22.14309;-6.8793416;0.4244666;1020.7261;-;-;51.52527153;-0.13344369;2.4600000381469727
1531048856707;-;-;0.047900394;1.2549903;9.833951;0.18087544;0.026726084;-0.01607569;-17.25;37.2;-38.7;22.161188;-6.9384956;0.44255495;1020.7261;-;-;51.52527153;-0.13344369;2.4600000381469727
1531048856706;-;-;0.047900394;1.2549903;9.833951;0.18087544;0.026726084;-0.01607569;-17.25;37.2;-38.7;22.161188;-6.9384956;0.44255495;1020.7261;-;-;51.52527153;-0.13344369;2.4600000381469727
1531048856706;-;-;0.047900394;1.2549903;9.833951;0.18087544;0.026726084;-0.01607569;-17.25;37.2;-38.7;22.161188;-6.9384956;0.44255495;1020.7261;-;-;51.52527153;-0.13344369;2.4600000381469727
1531048856714;-;-;0.038320314;1.3172607;9.862691;0.17075542;0.020334497;-0.009684103;-15.750001;35.7;-40.050003;22.190779;-7.1412897;0.4070189;1020.7261;-;-;51.52527153;-0.13344369;2.4600000381469727
1531048856724;-;-;0.047900394;1.2885206;9.73815;0.14305854;-0.015884494;0.013219083;-15.750001;35.7;-40.050003;22.190779;-7.1412897;0.4070189;1020.7261;-;-;51.52527153;-0.13344369;2.4600000381469727
1531048856734;-;-;0.09580079;1.4322218;9.733359;0.12228588;-0.014286598;0.007892761;-16.95;36.45;-38.7;22.208546;-7.3536057;0.36315405;1020.7261;-;-;51.52527153;-0.13344369;2.4600000381469727
1531048856744;-;-;0.22513184;1.4513819;9.79084;0.0796753;0.029389245;0.01002329;-16.95;36.45;-38.7;22.208546;-7.3536057;0.36315405;1020.7261;-;-;51.52527153;-0.13344369;2.4600000381469727
1531048856755;-;-;0.34488282;1.465752;9.72378;0.046119478;0.07359772;0.014284348;-18.900002;37.350002;-41.25;22.205585;-7.5181885;0.37043732;1020.7261;-;-;51.52527153;-0.13344369;2.4600000381469727
1531048856765;-;-;0.4167334;1.3172607;9.829161;-0.0050132154;0.09117459;0.01694751;-18.900002;37.350002;-41.25;22.205585;-7.5181885;0.37043732;1020.7261;-;-;51.52527153;-0.13344369;2.4600000381469727
1531048856778;-;-;0.32572266;1.3076807;9.671089;-0.024720607;0.09010932;0.022806464;-18.900002;37.350002;-41.25;22.195114;-7.6159506;0.34646228;1020.7261;-;-;51.52527153;-0.13344369;2.4600000381469727
1531048856785;-;-;0.23471193;1.3220508;9.80521;-0.04176484;0.08371773;0.01748014;-18.900002;37.350002;-41.25;22.195114;-7.6159506;0.34646228;1020.7261;-;-;51.52527153;-0.13344369;2.4600000381469727
1531048856796;-;-;0.081430666;1.2549903;9.867481;-0.031644296;0.06294865;0.029744994;-18.900002;36.300003;-40.050003;22.168583;-7.6306877;0.24988262;1020.7261;-;-;51.52527153;-0.13344369;2.4600000381469727
1531048856806;-;-;0.0;1.2406201;9.996812;-0.008208478;0.022468608;0.02921236;-18.900002;36.300003;-40.050003;22.168583;-7.6306877;0.24988262;1020.7261;-;-;51.52527153;-0.13344369;2.4600000381469727
1531048856816;-;-;0.081430666;1.3507911;10.020762;-0.005012685;-0.0014998432;0.053713445;-19.5;37.050003;-40.5;22.132559;-7.596518;0.15816848;1020.7261;-;-;51.52527153;-0.13344369;2.4600000381469727
1531048856827;-;-;0.12454102;1.2597803;10.020762;0.011498915;-0.015880913;0.04785449;-19.5;37.050003;-40.5;22.132559;-7.596518;0.15816848;1020.7261;-;-;51.52527153;-0.13344369;2.4600000381469727
1531048856836;-;-;0.17244141;1.3172607;10.054293;0.018423134;-0.013750384;0.056909237;-17.550001;37.050003;-40.5;22.090532;-7.5742464;0.119633734;1020.7261;-;-;51.52527153;-0.13344369;2.4600000381469727
1531048856846;-;-;0.16765137;1.2406201;9.948912;0.050381064;-0.0036303722;0.049452387;-17.550001;37.050003;-40.5;22.090532;-7.5742464;0.119633734;1020.72284;-;-;51.52527153;-0.13344369;2.4600000381469727
1531048856857;-;-;0.1580713;1.2406201;9.953702;0.075414784;0.0134138595;0.044658694;-18.75;35.100002;-38.7;22.031075;-7.582581;0.14495406;1020.72284;-;-;51.52527153;-0.13344369;2.4600000381469727
1531048856867;-;-;0.05269043;1.2549903;9.843531;0.07701268;0.031523354;0.043593433;-18.75;35.100002;-38.7;22.031075;-7.582581;0.14495406;1020.72284;-;-;51.52527153;-0.13344369;2.4600000381469727
1531048856877;-;-;0.023950197;1.3076807;9.77168;0.07168636;0.048034955;0.025483936;-17.85;36.0;-39.600002;21.972672;-7.630516;0.16020048;1020.72284;-;-;51.52527153;-0.13344369;2.4600000381469727
1531048856887;-;-;0.100590825;1.3076807;9.877061;0.05410949;0.06987287;0.037734475;-17.85;36.0;-39.600002;21.972672;-7.630516;0.16020048;1020.72284;-;-;51.52527153;-0.13344369;2.4600000381469727
1531048856897;-;-;0.17244141;1.2454102;9.829161;0.038130525;0.07679709;0.03134289;-17.550001;36.600002;-39.300003;21.926254;-7.717837;0.14405406;1020.72284;-;-;51.52527153;-0.13344369;2.4600000381469727
1531048856908;-;-;0.15328126;1.2502003;9.857901;0.02002103;0.060285497;0.036669213;-17.550001;36.600002;-39.300003;21.926254;-7.717837;0.14405406;1020.72284;-;-;51.52527153;-0.13344369;2.4600000381469727
1531048856918;-;-;0.1820215;1.336421;9.82437;0.011498915;0.028860195;0.047321856;-18.0;35.4;-39.0;21.880756;-7.7915497;0.08209047;1020.72284;-;-;51.52527153;-0.13344369;2.4600000381469727
1531048856928;-;-;0.20118165;1.341211;9.915381;0.015759973;-9.67211E-4;0.044658694;-18.0;35.4;-39.0;21.880756;-7.7915497;0.08209047;1020.72284;-;-;51.52527153;-0.13344369;2.4600000381469727
1531048856938;-;-;0.244292;1.3268409;9.958491;0.03493473;-0.043045156;0.04838712;-18.0;36.15;-41.100002;21.82473;-7.8250957;0.016093528;1020.72284;-;-;51.52527153;-0.13344369;2.4600000381469727
1531048856949;-;-;0.23950197;1.336421;9.934542;0.045054745;-0.059556756;0.043593433;-18.0;36.15;-41.100002;21.82473;-7.8250957;0.016093528;1020.71967;-;-;51.52527153;-0.13344369;2.4600000381469727
1531048856962;-;-;0.1820215;1.341211;9.915381;0.059435815;-0.06275255;0.036669213;-18.0;36.45;-40.2;21.767462;-7.841522;0.00487366;1020.71967;-;-;51.52527153;-0.13344369;2.4600000381469727
1531048856969;-;-;0.2203418;1.2981006;9.896221;0.07275163;-0.054230433;0.03347342;-18.0;36.45;-40.2;21.767462;-7.841522;0.00487366;1020.71967;-;-;51.52527153;-0.13344369;2.4600000381469727
1531048856980;-;-;0.23471193;1.3172607;9.857901;0.06795793;-0.052632537;0.043593433;-19.35;36.9;-39.9;21.7226;-7.883259;0.068128586;1020.71967;-;-;51.52527153;-0.13344369;2.4600000381469727
1531048856990;-;-;0.26345217;1.3220508;9.79084;0.07594742;-0.047838848;0.04093027;-19.35;36.9;-39.9;21.7226;-7.883259;0.068128586;1020.71967;-;-;51.52527153;-0.13344369;2.4600000381469727
1531048857000;-;-;0.4167334;1.4370118;9.627979;0.06529477;-0.049969375;0.02921236;-18.150002;36.600002;-40.5;21.686148;-7.956197;0.14398426;1020.71967;-;-;51.52527153;-0.13344369;2.4600000381469727
1531048857014;-;-;0.43589357;1.4322218;9.75252;0.05624002;-0.05156727;0.028679729;-15.900001;36.45;-38.25;21.649614;-8.038379;0.20828375;1020.71967;-;-;51.52527153;-0.13344369;2.4600000381469727
1531048857022;-;-;0.34009278;1.2597803;9.905801;0.04398948;-0.07553573;0.010037602;-15.900001;36.45;-38.25;21.649614;-8.038379;0.20828375;1020.71967;-;-;51.52527153;-0.13344369;2.4600000381469727
1531048857032;-;-;0.33530274;1.3507911;9.929751;0.048250537;-0.07660099;0.023353409;-18.0;37.2;-39.9;21.619728;-8.113453;0.27045727;1020.71967;-;-;51.52527153;-0.13344369;2.4600000381469727
1531048857042;-;-;0.3879932;1.3076807;10.039923;0.07967584;-0.116548404;0.010037602;-18.0;37.2;-39.9;21.619728;-8.113453;0.27045727;1020.71967;-;-;51.52527153;-0.13344369;2.4600000381469727
1531048857052;-;-;0.4742139;1.3268409;10.015972;0.08020847;-0.13039684;0.032940786;-17.25;36.45;-39.45;21.60669;-8.169959;0.35718533;1020.70764;-;-;51.52527153;-0.13344369;2.4600000381469727
1531048857063;-;-;0.42152345;1.2981006;10.044712;0.11802536;-0.1825948;0.024951305;-17.25;36.45;-39.45;21.60669;-8.169959;0.35718533;1020.70764;-;-;51.52527153;-0.13344369;2.4600000381469727
1531048857072;-;-;0.45984375;1.3986914;10.020762;0.11962326;-0.19804114;0.03613658;-19.2;36.600002;-38.4;21.599737;-8.252763;0.49275863;1020.70764;-;-;51.52527153;-0.13344369;2.4600000381469727
1531048857082;-;-;0.43110353;1.465752;9.857901;0.1334717;-0.17460532;0.019624982;-19.2;36.600002;-38.4;21.599737;-8.252763;0.49275863;1020.70764;-;-;51.52527153;-0.13344369;2.4600000381469727
1531048857092;-;-;0.34009278;1.4274317;9.81958;0.13453697;-0.1644853;0.03081026;-18.6;36.300003;-40.5;21.59886;-8.381509;0.7048505;1020.70764;-;-;51.52527153;-0.13344369;2.4600000381469727
1531048857102;-;-;0.4167334;1.341211;9.508228;0.09672007;-0.061154652;0.013766027;-18.6;36.300003;-40.5;21.59886;-8.381509;0.7048505;1020.70764;-;-;51.52527153;-0.13344369;2.4600000381469727
1531048857113;-;-;0.28740236;1.4418018;9.541759;0.07488215;-0.030794615;0.008439706;-18.6;34.95;-38.850002;21.603834;-8.536664;0.90799516;1020.70764;-;-;51.52527153;-0.13344369;2.4600000381469727
1531048857122;-;-;0.29698244;1.4178516;9.651929;-0.0012842594;0.010218066;0.022288144;-18.6;34.95;-38.850002;21.603834;-8.536664;0.90799516;1020.70764;-;-;51.52527153;-0.13344369;2.4600000381469727
1531048857132;-;-;0.3784131;1.3891114;9.671089;0.0024441662;0.009152802;0.028147098;-19.95;38.100002;-38.850002;21.600094;-8.648481;0.99287593;1020.70764;-;-;51.52527153;-0.13344369;2.4600000381469727
1531048857142;-;-;0.57001466;1.3986914;9.527389;-0.042296942;0.04270863;0.018559717;-19.95;38.100002;-38.850002;21.600094;-8.648481;0.99287593;1020.70764;-;-;51.52527153;-0.13344369;2.4600000381469727
1531048857152;-;-;0.57001466;1.331631;9.436378;-0.067863286;0.052296013;0.015363925;-18.150002;34.95;-39.300003;21.578386;-8.662147;0.9908188;1020.6951;-;-;51.52527153;-0.13344369;2.4600000381469727
1531048857163;-;-;0.5029541;1.3124708;9.292676;-0.11580019;0.12047293;-6.1504263E-4;-18.150002;34.95;-39.300003;21.578386;-8.662147;0.9908188;1020.6951;-;-;51.52527153;-0.13344369;2.4600000381469727
1531048857173;-;-;0.51732427;1.3651612;9.263936;-0.13657284;0.134854;-0.012865583;-18.900002;35.25;-39.300003;21.550589;-8.601263;0.94024956;1020.6951;-;-;51.52527153;-0.13344369;2.4600000381469727
1531048857183;-;-;0.244292;1.341211;9.627979;-0.20102134;0.106091864;-0.017126642;-18.900002;35.25;-39.300003;21.550589;-8.601263;0.94024956;1020.6951;-;-;51.52527153;-0.13344369;2.4600000381469727
1531048857193;-;-;0.09101075;1.3555812;9.857901;-0.19889082;0.07147077;-0.01925717;-18.6;35.7;-40.5;21.534895;-8.471266;0.8098406;1020.6951;-;-;51.52527153;-0.13344369;2.4600000381469727
1531048857203;-;-;-0.27303225;1.3172607;10.518927;-0.12645283;-0.047306214;0.03187552;-18.6;35.7;-40.5;21.534895;-8.471266;0.8098406;1020.6951;-;-;51.52527153;-0.13344369;2.4600000381469727
1531048857214;-;-;0.13891114;1.3268409;10.274634;-0.061471704;-0.068078876;0.04093027;-18.150002;37.050003;-36.75;21.5382;-8.260546;0.6858238;1020.6951;-;-;51.52527153;-0.13344369;2.4600000381469727
1531048857224;-;-;0.43589357;1.331631;10.044712;-0.011936903;-4.3457875E-4;0.01642919;-18.150002;37.050003;-36.75;21.5382;-8.260546;0.6858238;1020.6951;-;-;51.52527153;-0.13344369;2.4600000381469727
1531048857234;-;-;0.3879932;1.2310401;9.862691;-0.016730594;0.042176;0.0020481185;-18.150002;36.0;-40.050003;21.520622;-8.104001;0.7211128;1020.6951;-;-;51.52527153;-0.13344369;2.4600000381469727
1531048857244;-;-;0.38320315;1.3124708;9.6615095;-0.040699046;0.1050266;-0.009137158;-18.150002;36.0;-40.050003;21.520622;-8.104001;0.7211128;1020.6967;-;-;51.52527153;-0.13344369;2.4600000381469727
1531048857255;-;-;0.244292;1.3220508;9.7142;-0.06466749;0.11834241;-0.009137158;-17.550001;36.600002;-38.850002;21.495333;-8.070873;0.7489442;1020.6967;-;-;51.52527153;-0.13344369;2.4600000381469727
1531048857265;-;-;0.10538086;1.3076807;9.6615095;-0.090766475;0.13006032;0.0047112796;-17.550001;36.600002;-38.850002;21.495333;-8.070873;0.7489442;1020.6967;-;-;51.52527153;-0.13344369;2.4600000381469727
1531048857275;-;-;0.10538086;1.22146;9.690249;-0.10408228;0.11940767;0.010037602;-17.85;36.0;-40.050003;21.483515;-8.036327;0.64645565;1020.6967;-;-;51.52527153;-0.13344369;2.4600000381469727
1531048857285;-;-;0.16286133;1.3172607;9.800421;-0.10301701;0.07466656;0.01642919;-17.85;36.0;-40.050003;21.483515;-8.036327;0.64645565;1020.6967;-;-;51.52527153;-0.13344369;2.4600000381469727
1531048857295;-;-;0.19160157;1.346001;9.929751;-0.10781079;0.043773368;0.019090246;-17.85;37.050003;-37.65;21.458344;-7.9408245;0.5027787;1020.6967;-;-;51.52527153;-0.13344369;2.4600000381469727
1531048857305;-;-;0.16286133;1.3124708;10.159674;-0.07691812;-0.0020330022;0.020688143;-17.85;37.050003;-37.65;21.458344;-7.9408245;0.5027787;1020.6967;-;-;51.52527153;-0.13344369;2.4600000381469727
1531048857316;-;-;0.2682422;1.3651612;10.322535;-0.060939148;-0.026534084;0.014829188;-15.6;36.45;-38.7;21.424147;-7.8215957;0.40853575;1020.6967;-;-;51.52527153;-0.13344369;2.4600000381469727
1531048857325;-;-;0.28261232;1.2549903;10.322535;-0.009273821;-0.03239304;0.012698659;-15.6;36.45;-38.7;21.424147;-7.8215957;0.40853575;1020.6967;-;-;51.52527153;-0.13344369;2.4600000381469727
1531048857335;-;-;0.3305127;1.2837305;10.370435;0.026945172;-0.023870924;0.009502864;-15.6;35.100002;-38.25;21.400305;-7.720685;0.39481825;1020.6967;-;-;51.52527153;-0.13344369;2.4600000381469727
1531048857346;-;-;0.31135255;1.3747413;10.2315235;0.08446945;-0.017479336;-0.0059434697;-15.6;35.100002;-38.25;21.400305;-7.720685;0.39481825;1020.6946;-;-;51.52527153;-0.13344369;2.4600000381469727
1531048857356;-;-;0.34488282;1.3124708;10.011182;0.10204631;-0.00150037;-0.011802425;-15.900001;34.050003;-38.7;21.38962;-7.693457;0.43092123;1020.6946;-;-;51.52527153;-0.13344369;2.4600000381469727
1531048857366;-;-;0.34967285;1.3172607;9.83874;0.093524195;-0.0030982667;-0.014998217;-15.900001;34.050003;-38.7;21.38962;-7.693457;0.43092123;1020.6946;-;-;51.52527153;-0.13344369;2.4600000381469727
1531048857376;-;-;0.34488282;1.4226416;9.546548;0.06742522;0.012348068;-0.012867688;-18.300001;34.5;-39.0;21.396784;-7.7698975;0.450224;1020.6946;-;-;51.52527153;-0.13344369;2.4600000381469727
1531048857386;-;-;0.34488282;1.5040723;9.78605;0.016825158;0.0293923;-0.019791909;-18.300001;34.5;-39.0;21.396784;-7.7698975;0.450224;1020.6946;-;-;51.52527153;-0.13344369;2.4600000381469727
1531048857397;-;-;0.34009278;1.3891114;9.642349;-0.04442755;0.0293923;-0.009671895;-16.800001;36.0;-38.4;21.413605;-7.8787055;0.44925395;1020.6946;-;-;51.52527153;-0.13344369;2.4600000381469727
1531048857407;-;-;0.26345217;1.3268409;9.6615095;-0.060406517;0.040577576;0.0020460137;-16.800001;36.0;-38.4;21.413605;-7.8787055;0.44925395;1020.6946;-;-;51.52527153;-0.13344369;2.4600000381469727
1531048857416;-;-;0.21076173;1.2597803;9.7621;-0.066798106;0.03631652;0.002578646;-14.85;36.15;-38.25;21.430172;-7.9147162;0.42333993;1020.6946;-;-;51.52527153;-0.13344369;2.4600000381469727
1531048857426;-;-;0.30177248;1.3507911;10.073453;-0.052949667;-0.03239304;0.034536578;-14.85;36.15;-38.25;21.430172;-7.9147162;0.42333993;1020.6946;-;-;51.52527153;-0.13344369;2.4600000381469727
1531048857463;-;-;0.3784131;1.3555812;10.284214;0.117492646;-0.054763593;0.0031112782;-14.55;35.850002;-38.25;21.398277;-7.7865424;0.41010445;1020.6952;-;-;51.52525994;-0.13354957;2.8499999046325684
1531048857452;-;-;0.3161426;1.3507911;10.499766;0.035467286;-0.09684154;0.026014462;-14.55;35.850002;-38.25;21.424713;-7.8558826;0.3853121;1020.6952;-;-;51.52525994;-0.13354957;2.8499999046325684
1531048857437;-;-;0.25387207;1.4082716;10.174044;-0.05934125;-0.0515678;0.028677624;-15.450001;36.600002;-39.300003;21.424713;-7.8558826;0.3853121;1020.6946;-;-;51.52527153;-0.13344369;2.4600000381469727
1531048857468;-;-;0.3784131;1.2741505;10.154883;0.14678743;-0.029729879;4.4811703E-4;-14.55;35.850002;-38.25;21.398277;-7.7865424;0.41010445;1020.6952;-;-;51.52525994;-0.13354957;2.8499999046325684
1531048857478;-;-;0.41194338;1.3268409;9.551338;0.1611685;0.039512314;-0.014465585;-18.75;36.45;-38.7;21.38592;-7.8061905;0.51397884;1020.6952;-;-;51.52525994;-0.13354957;2.8499999046325684
1531048857488;-;-;0.3784131;1.3268409;9.388477;0.13879794;0.07519867;-0.0102045275;-18.75;36.45;-38.7;21.38592;-7.8061905;0.51397884;1020.6952;-;-;51.52525994;-0.13354957;2.8499999046325684
1531048857499;-;-;0.26345217;1.465752;9.086704;0.040793605;0.08478605;-0.011269792;-17.7;35.850002;-42.300003;21.389343;-7.9504566;0.56376594;1020.6952;-;-;51.52525994;-0.13354957;2.8499999046325684
1531048857509;-;-;0.24908204;1.3507911;9.038804;-0.02844858;0.08425342;9.807493E-4;-16.800001;35.7;-38.100002;21.389343;-7.9504566;0.56376594;1020.6952;-;-;51.52525994;-0.13354957;2.8499999046325684
1531048857520;-;-;0.19160157;1.3986914;9.3453665;-0.15042135;0.065611295;0.017492346;-16.800001;35.7;-38.100002;21.394821;-8.11487;0.49542752;1020.6952;-;-;51.52525994;-0.13354957;2.8499999046325684
1531048857530;-;-;0.23471193;1.4370118;9.74294;-0.18131402;0.019272286;0.02281867;-16.800001;35.7;-38.100002;21.394821;-8.11487;0.49542752;1020.6952;-;-;51.52525994;-0.13354957;2.8499999046325684
1531048857540;-;-;0.21555176;1.2166699;10.174044;-0.16533506;-0.029197246;0.023883935;-17.550001;36.0;-40.050003;21.388767;-8.118343;0.3965824;1020.6952;-;-;51.52525994;-0.13354957;2.8499999046325684
1531048857550;-;-;0.20597169;1.22146;10.308165;-0.12858343;-0.047839373;0.035601843;-17.550001;36.0;-40.050003;21.388767;-8.118343;0.3965824;1020.6952;-;-;51.52525994;-0.13354957;2.8499999046325684
1531048857561;-;-;0.18681154;1.2645704;10.241104;-0.114735;-0.044110946;0.027079728;-17.550001;34.95;-40.5;21.357855;-7.9464355;0.34746557;1020.692;-;-;51.52525994;-0.13354957;2.8499999046325684
1531048857571;-;-;0.48379397;1.3028907;9.982442;-0.017795937;0.04217547;0.020688143;-18.900002;37.350002;-39.600002;21.324896;-7.7842646;0.39206487;1020.692;-;-;51.52525994;-0.13354957;2.8499999046325684
1531048857580;-;-;0.3305127;1.2597803;9.77168;-0.0076759234;0.07360078;0.014829188;-18.900002;37.350002;-39.600002;21.324896;-7.7842646;0.39206487;1020.692;-;-;51.52525994;-0.13354957;2.8499999046325684
1531048857590;-;-;0.29698244;1.3172607;9.627979;-0.015665406;0.083188154;-6.171474E-4;-18.900002;37.350002;-39.600002;21.324896;-7.7842646;0.39206487;1020.692;-;-;51.52525994;-0.13354957;2.8499999046325684
1531048857600;-;-;0.244292;1.3699512;9.656719;-0.072657056;0.028327035;0.026547097;-18.75;36.45;-38.7;21.292372;-7.7441177;0.37077376;1020.692;-;-;51.52525994;-0.13354957;2.8499999046325684
1531048857611;-;-;0.17723145;1.336421;9.81;-0.094494976;0.0075543784;0.01536182;-17.85;35.7;-39.300003;21.269135;-7.730967;0.28234825;1020.692;-;-;51.52525994;-0.13354957;2.8499999046325684
1531048857621;-;-;0.11496094;1.2166699;10.106983;-0.102484465;-0.05050253;0.029210255;-17.85;35.7;-39.300003;21.269135;-7.730967;0.28234825;1020.692;-;-;51.52525994;-0.13354957;2.8499999046325684
1531048857631;-;-;0.1341211;1.2549903;10.135723;-0.08757076;-0.045176215;0.030808154;-16.050001;36.0;-40.95;21.269135;-7.730967;0.28234825;1020.692;-;-;51.52525994;-0.13354957;2.8499999046325684
1531048857641;-;-;0.28740236;1.2166699;10.145303;-0.04176439;0.00329332;0.017492346;-16.050001;36.0;-40.95;21.244804;-7.6381693;0.26155508;1020.692;-;-;51.52525994;-0.13354957;2.8499999046325684
1531048857651;-;-;0.29698244;1.1735597;10.073453;-0.03217701;0.005956481;0.01323129;-17.25;36.45;-39.0;21.244804;-7.6381693;0.26155508;1020.6882;-;-;51.52525994;-0.13354957;2.8499999046325684
1531048857662;-;-;0.33530274;1.1543995;10.135723;0.028010435;0.051230222;0.002578646;-17.25;36.45;-39.0;21.218874;-7.5294967;0.31439734;1020.6882;-;-;51.52525994;-0.13354957;2.8499999046325684
1531048857671;-;-;0.32093263;1.2022998;10.111773;0.03227149;0.057089172;-0.010737159;-17.25;36.45;-39.0;21.218874;-7.5294967;0.31439734;1020.6882;-;-;51.52525994;-0.13354957;2.8499999046325684
1531048857682;-;-;0.34009278;1.22625;9.81;0.022151481;0.06667656;-0.008073999;-17.7;36.45;-38.7;21.203005;-7.4879932;0.31865558;1020.6882;-;-;51.52525994;-0.13354957;2.8499999046325684
1531048857692;-;-;0.26345217;1.2406201;9.75731;0.022151481;0.07573131;-0.019259274;-17.7;36.45;-38.7;21.203005;-7.4879932;0.31865558;1020.6882;-;-;51.52525994;-0.13354957;2.8499999046325684
1531048857702;-;-;0.23950197;1.2837305;9.877061;-0.03057911;0.021402815;-0.006476102;-17.7;35.850002;-38.25;21.200994;-7.5193934;0.25547072;1020.6882;-;-;51.52525994;-0.13354957;2.8499999046325684
1531048857712;-;-;0.25387207;1.2166699;9.833951;-0.039101228;0.020337552;-0.0075413664;-15.750001;36.300003;-38.100002;21.203623;-7.549394;0.16828586;1020.6882;-;-;51.52525994;-0.13354957;2.8499999046325684
1531048857723;-;-;0.2203418;1.2597803;9.814791;-0.040699124;0.0075543784;-0.014998217;-15.750001;36.300003;-38.100002;21.203623;-7.549394;0.16828586;1020.6882;-;-;51.52525994;-0.13354957;2.8499999046325684
1531048857732;-;-;0.22992188;1.2885206;9.8866415;-0.039101228;-0.00150037;-0.002215044;-15.900001;35.4;-37.800003;21.209568;-7.5160728;0.13544671;1020.6882;-;-;51.52525994;-0.13354957;2.8499999046325684
1531048857743;-;-;0.37362307;1.2502003;9.977652;-0.014600143;0.0038259523;-0.0038129408;-15.900001;35.4;-37.800003;21.209568;-7.5160728;0.13544671;1020.6882;-;-;51.52525994;-0.13354957;2.8499999046325684
1531048857753;-;-;0.37362307;1.2502003;9.977652;-0.014600143;0.0038259523;-0.0038129408;-14.55;36.9;-38.25;21.209568;-7.5160728;0.13544671;1020.6882;-;-;51.52525994;-0.13354957;2.8499999046325684
1531048857763;-;-;0.30177248;1.2933106;10.001602;0.015227262;0.014478596;0.006307072;-14.55;36.9;-38.25;21.207024;-7.4720397;0.1338351;1020.6823;-;-;51.52525994;-0.13354957;2.8499999046325684
1531048857774;-;-;0.23471193;1.1831397;9.599238;0.013096733;0.016076494;0.0073723355;-14.85;35.100002;-39.9;21.203255;-7.45176;0.13752854;1020.6823;-;-;51.52525994;-0.13354957;2.8499999046325684
1531048857783;-;-;0.25866213;1.2406201;9.498648;0.028543068;0.08159026;-6.171474E-4;-14.85;35.100002;-39.9;21.203255;-7.45176;0.13752854;1020.6823;-;-;51.52525994;-0.13354957;2.8499999046325684
1531048857793;-;-;0.17244141;1.2693604;9.6758795;0.027477803;0.07466604;-0.013932954;-16.800001;34.95;-39.600002;21.203255;-7.45176;0.13752854;1020.6823;-;-;51.52525994;-0.13354957;2.8499999046325684
1531048857804;-;-;0.2203418;1.3891114;9.7812605;-0.0012847118;0.010747642;-0.0011598819;-16.800001;34.95;-39.600002;21.19421;-7.464068;0.12909368;1020.6823;-;-;51.52525994;-0.13354957;2.8499999046325684
1531048857814;-;-;0.32093263;1.3555812;9.85311;-0.0076762983;0.0070192176;0.01375382;-15.750001;35.25;-37.65;21.190866;-7.4959445;0.053427134;1020.6823;-;-;51.52525994;-0.13354957;2.8499999046325684
1531048857824;-;-;0.244292;1.2022998;10.020762;-0.03217738;-0.0031007947;0.003633808;-15.750001;35.25;-37.65;21.190866;-7.4959445;0.053427134;1020.6823;-;-;51.52525994;-0.13354957;2.8499999046325684
1531048857835;-;-;0.23471193;1.2358302;10.111773;-0.011937356;-9.7026594E-4;0.0073622335;-15.750001;35.25;-39.300003;21.1836;-7.4953084;0.04026215;1020.6823;-;-;51.52525994;-0.13354957;2.8499999046325684
1531048857845;-;-;0.3305127;1.2502003;10.039923;0.009900565;-0.0025681625;0.0052317046;-15.750001;35.25;-39.300003;21.1836;-7.4953084;0.04026215;1020.6823;-;-;51.52525994;-0.13354957;2.8499999046325684
1531048857855;-;-;0.3305127;1.2502003;10.039923;0.009900565;-0.0025681625;0.0052317046;-16.95;36.15;-41.100002;21.1836;-7.4953084;0.04026215;1020.6823;-;-;51.52525994;-0.13354957;2.8499999046325684
1531048857865;-;-;0.028740235;1.2070899;10.044712;0.018955313;-0.018547129;0.007894866;-16.95;36.15;-41.100002;21.174644;-7.463128;0.041443776;1020.6888;-;-;51.52525994;-0.13354957;2.8499999046325684
1531048857877;-;-;0.3544629;1.1879297;9.891431;0.02321637;0.008084482;0.024939097;-15.3;36.45;-39.9;21.16813;-7.466088;0.03985298;1020.6888;-;-;51.52525994;-0.13354957;2.8499999046325684
1531048857886;-;-;0.48379397;1.1639795;9.7812605;0.017357416;0.039509784;0.0015032792;-15.3;36.45;-39.9;21.16813;-7.466088;0.03985298;1020.6888;-;-;51.52525994;-0.13354957;2.8499999046325684
1531048857896;-;-;0.3305127;1.22625;9.881851;0.008835301;0.044303473;-0.019269377;-14.85;37.5;-39.0;21.16062;-7.488989;0.054406945;1020.6888;-;-;51.52525994;-0.13354957;2.8499999046325684
1531048857906;-;-;0.22992188;1.21188;9.862691;-2.1944736E-4;0.029922403;-0.016073585;-14.85;37.5;-39.0;21.16062;-7.488989;0.054406945;1020.6888;-;-;51.52525994;-0.13354957;2.8499999046325684
1531048857917;-;-;0.18681154;1.2885206;10.116563;-0.006078402;-0.026536612;0.0052317046;-15.750001;35.7;-39.300003;21.14908;-7.512826;0.022311134;1020.6888;-;-;51.52525994;-0.13354957;2.8499999046325684
1531048857927;-;-;0.22992188;1.22146;10.083033;0.0019110816;-0.04038505;0.011623291;-15.750001;35.7;-39.300003;21.14908;-7.512826;0.022311134;1020.6888;-;-;51.52525994;-0.13354957;2.8499999046325684
1531048857937;-;-;0.26345217;1.2549903;10.044712;0.018422682;-0.0073618526;4.3801474E-4;-16.050001;34.65;-39.300003;21.162764;-7.517966;-0.021432279;1020.6888;-;-;51.52525994;-0.13354957;2.8499999046325684
1531048857947;-;-;0.20597169;1.2358302;9.939331;0.021618474;0.011812908;9.70647E-4;-16.050001;34.65;-39.300003;21.162764;-7.517966;-0.021432279;1020.6888;-;-;51.52525994;-0.13354957;2.8499999046325684
1531048857958;-;-;0.244292;1.1256592;9.73815;0.04452166;0.03844452;-0.0022251464;-16.800001;37.350002;-39.300003;21.161264;-7.5189085;0.009056403;1020.68317;-;-;51.52525994;-0.13354957;2.8499999046325684
1531048857968;-;-;0.19639161;1.2310401;9.68067;0.03280375;0.03791189;0.012688557;-18.300001;36.15;-41.550003;21.161264;-7.5189085;0.009056403;1020.68317;-;-;51.52525994;-0.13354957;2.8499999046325684
1531048857978;-;-;0.18681154;1.2981006;9.560919;-0.0023499762;0.04057505;0.0015032792;-18.300001;36.15;-41.550003;21.157215;-7.544975;0.009431744;1020.68317;-;-;51.52525994;-0.13354957;2.8499999046325684
1531048857989;-;-;0.14370118;1.2406201;9.642349;-0.019394208;0.03418346;0.004699073;-18.0;36.45;-38.7;21.157215;-7.544975;0.009431744;1020.68317;-;-;51.52525994;-0.13354957;2.8499999046325684
1531048857999;-;-;0.20118165;1.2166699;9.857901;-0.041764762;-0.0094923815;0.010558028;-18.0;36.45;-38.7;21.143064;-7.5811315;-0.03069594;1020.68317;-;-;51.52525994;-0.13354957;2.8499999046325684
1531048858009;-;-;0.17244141;1.2358302;10.015972;-0.042297393;-0.012688176;0.014286453;-18.150002;37.65;-40.95;21.133923;-7.5659504;-0.0703102;1020.68317;-;-;51.52525994;-0.13354957;2.8499999046325684
1531048858019;-;-;0.25387207;1.1927198;10.039923;0.0013784494;-0.051037695;0.010558028;-18.150002;37.65;-40.95;21.133923;-7.5659504;-0.0703102;1020.68317;-;-;51.52525994;-0.13354957;2.8499999046325684
1531048858031;-;-;0.37362307;1.22146;10.063872;0.026944797;-0.053168222;0.0020359114;-18.0;37.2;-40.65;21.121876;-7.520961;-0.054781325;1020.68317;-;-;51.52525994;-0.13354957;2.8499999046325684
1531048858040;-;-;0.34009278;1.2070899;9.905801;0.059967995;-0.025471348;-0.010747261;-18.0;37.2;-40.65;21.121876;-7.520961;-0.054781325;1020.68317;-;-;51.52525994;-0.13354957;2.8499999046325684
1531048858051;-;-;0.3161426;1.1591895;9.82437;0.06263115;-0.007894485;-0.019269377;-18.0;36.9;-39.9;21.12349;-7.5323153;0.003749987;1020.68317;-;-;51.52525994;-0.13354957;2.8499999046325684
1531048858061;-;-;0.22513184;1.1975098;9.536968;0.048250087;0.024596082;-0.015540952;-18.0;36.9;-39.9;21.12349;-7.5323153;0.003749987;1020.6783;-;-;51.52525994;-0.13354957;2.8499999046325684
1531048858072;-;-;0.16765137;1.2022998;9.5561285;0.034401648;0.035248727;-0.010747261;-17.1;36.600002;-40.95;21.137981;-7.6035547;0.021947745;1020.6783;-;-;51.52525994;-0.13354957;2.8499999046325684
1531048858082;-;-;0.09101075;1.2358302;9.733359;-0.03590581;0.0315203;-0.0022251464;-17.1;36.600002;-40.95;21.137981;-7.6035547;0.021947745;1020.6783;-;-;51.52525994;-0.13354957;2.8499999046325684
1531048858093;-;-;0.13891114;1.1783496;9.78605;-0.052417405;0.020867657;0.010025395;-19.2;36.300003;-38.4;21.143532;-7.654946;-0.011054874;1020.6783;-;-;51.52525994;-0.13354957;2.8499999046325684
1531048858102;-;-;0.25387207;1.2358302;9.924961;-0.06040689;0.027791874;0.0025685437;-19.2;36.300003;-38.4;21.143532;-7.654946;-0.011054874;1020.6783;-;-;51.52525994;-0.13354957;2.8499999046325684
1531048858112;-;-;0.25866213;1.2502003;9.982442;-0.055080567;0.030455034;0.0052317046;-18.75;38.25;-40.65;21.136595;-7.6224804;-0.046531096;1020.6783;-;-;51.52525994;-0.13354957;2.8499999046325684
1531048858122;-;-;0.17723145;1.1975098;10.284214;-0.031644747;0.005421321;9.70647E-4;-18.75;38.25;-40.65;21.136595;-7.6224804;-0.046531096;1020.6783;-;-;51.52525994;-0.13354957;2.8499999046325684
1531048858135;-;-;0.20597169;1.1591895;10.375225;0.016824784;-0.02334082;0.0073622335;-18.75;37.5;-41.550003;21.125755;-7.5525417;-0.06859464;1020.6783;-;-;51.52525994;-0.13354957;2.8499999046325684
1531048858143;-;-;0.24908204;1.22625;10.269844;0.039195336;-0.04517874;-9.4617484E-5;-18.75;37.5;-41.550003;21.125755;-7.5525417;-0.06859464;1020.6783;-;-;51.52525994;-0.13354957;2.8499999046325684
1531048858154;-;-;0.20597169;1.2645704;10.269844;0.050380614;-0.018547129;0.007894866;-19.2;36.0;-40.95;21.120024;-7.5156007;-0.07796674;1020.6783;-;-;51.52525994;-0.13354957;2.8499999046325684
1531048858164;-;-;0.21076173;1.22625;9.877061;0.07062064;0.008617113;-0.0064862045;-19.2;36.0;-40.95;21.120024;-7.5156007;-0.07796674;1020.6833;-;-;51.52525994;-0.13354957;2.8499999046325684
1531048858174;-;-;0.25866213;1.2693604;9.7621;0.06263115;0.021400288;-0.01021463;-19.2;36.300003;-39.600002;21.117008;-7.557726;-0.04577188;1020.6833;-;-;51.52525994;-0.13354957;2.8499999046325684
1531048858184;-;-;0.24908204;1.2885206;9.70941;0.041325867;0.017671863;-0.007018836;-19.2;36.300003;-39.600002;21.117008;-7.557726;-0.04577188;1020.6833;-;-;51.52525994;-0.13354957;2.8499999046325684
1531048858195;-;-;0.23471193;1.2502003;9.85311;0.014161623;-9.7026594E-4;-0.0027577786;-17.85;37.350002;-40.5;21.118713;-7.6360035;-0.046853073;1020.6833;-;-;51.52525994;-0.13354957;2.8499999046325684
1531048858204;-;-;0.25387207;1.3076807;9.82437;-0.00554577;-0.016949233;-0.00542094;-17.85;37.350002;-40.5;21.118713;-7.6360035;-0.046853073;1020.6833;-;-;51.52525994;-0.13354957;2.8499999046325684
1531048858214;-;-;0.2778223;1.3268409;9.992022;-0.006078402;-0.0015028982;-0.0064862045;-17.85;37.050003;-41.25;21.118689;-7.6841493;-0.060550172;1020.6833;-;-;51.52525994;-0.13354957;2.8499999046325684
1531048858225;-;-;0.23950197;1.2885206;10.049502;0.011498462;0.035248727;-0.0032904109;-17.85;37.050003;-41.25;21.118689;-7.6841493;-0.060550172;1020.6833;-;-;51.52525994;-0.13354957;2.8499999046325684
1531048858235;-;-;0.16765137;1.2358302;9.934542;0.026412165;0.03897715;-0.0064862045;-18.75;37.800003;-40.2;21.122515;-7.687037;-0.047955617;1020.6833;-;-;51.52525994;-0.13354957;2.8499999046325684
1531048858245;-;-;0.20597169;1.3076807;9.857901;0.0253469;0.044303473;-0.0022251464;-18.75;37.800003;-40.2;21.122515;-7.687037;-0.047955617;1020.6833;-;-;51.52525994;-0.13354957;2.8499999046325684
1531048858255;-;-;0.23471193;1.3507911;9.73815;0.016292151;0.04164031;-0.013410423;-17.550001;37.350002;-40.5;21.125265;-7.69687;-0.079550266;1020.68646;-;-;51.52525994;-0.13354957;2.8499999046325684
1531048858265;-;-;0.25866213;1.3268409;9.79084;0.009900565;0.042705577;-0.00542094;-17.550001;37.350002;-40.5;21.125265;-7.69687;-0.079550266;1020.68646;-;-;51.52525994;-0.13354957;2.8499999046325684
1531048858275;-;-;0.244292;1.3172607;9.848321;0.0019110816;0.022998184;-0.01021463;-18.150002;37.350002;-40.050003;21.126566;-7.726944;-0.12575498;1020.68646;-;-;51.52525994;-0.13354957;2.8499999046325684
1531048858285;-;-;0.21076173;1.2549903;9.948912;3.1318486E-4;0.020335024;-0.015008319;-18.150002;37.350002;-40.050003;21.126566;-7.726944;-0.12575498;1020.68646;-;-;51.52525994;-0.13354957;2.8499999046325684
1531048858296;-;-;0.16286133;1.2837305;9.867481;0.008302184;0.027255975;-0.011292943;-16.95;37.800003;-40.65;21.128668;-7.733856;-0.17011827;1020.68646;-;-;51.52525994;-0.13354957;2.8499999046325684
1531048858306;-;-;0.16765137;1.3172607;9.74294;0.0168243;0.046963368;-0.010227678;-16.95;37.800003;-40.65;21.128668;-7.733856;-0.17011827;1020.68646;-;-;51.52525994;-0.13354957;2.8499999046325684
1531048858317;-;-;0.18681154;1.336421;9.74294;-0.009807311;0.041104414;-0.01768453;-18.150002;36.600002;-40.5;21.137693;-7.7388873;-0.19868495;1020.68646;-;-;51.52525994;-0.13354957;2.8499999046325684
1531048858327;-;-;0.13891114;1.3172607;9.73815;-0.015133634;0.02352755;-0.012890839;-17.7;35.100002;-40.65;21.137693;-7.7388873;-0.19868495;1020.68646;-;-;51.52525994;-0.13354957;2.8499999046325684
1531048858337;-;-;0.21555176;1.3076807;9.79563;-0.04442841;0.0022222616;0.002555495;-17.7;35.100002;-40.65;21.147392;-7.75019;-0.24224457;1020.68646;-;-;51.52525994;-0.13354957;2.8499999046325684
1531048858347;-;-;0.18681154;1.2789404;9.910591;-0.043363143;0.013940171;-0.009162414;-16.95;36.15;-41.100002;21.147392;-7.75019;-0.24224457;1020.68646;-;-;51.52525994;-0.13354957;2.8499999046325684
1531048858357;-;-;0.1580713;1.2358302;10.130933;-0.019927323;0.020331757;-0.007031885;-16.95;36.15;-41.100002;21.155697;-7.732661;-0.2776214;1020.6811;-;-;51.52525994;-0.13354957;2.8499999046325684
1531048858368;-;-;0.119750984;1.2597803;10.121353;-0.0087420475;0.022462286;-0.0043687243;-21.0;37.050003;-40.95;21.155697;-7.732661;-0.2776214;1020.6811;-;-;51.52525994;-0.13354957;2.8499999046325684
1531048858378;-;-;0.1820215;1.2933106;10.087823;0.03599906;0.025658078;-0.009162414;-21.0;37.050003;-40.95;21.156322;-7.686801;-0.29120785;1020.6811;-;-;51.52525994;-0.13354957;2.8499999046325684
1531048858391;-;-;0.25866213;1.2933106;9.924961;0.048249602;0.04003915;-0.0043687243;-15.900001;35.100002;-41.100002;21.159943;-7.67802;-0.32126132;1020.6811;-;-;51.52525994;-0.13354957;2.8499999046325684
1531048858399;-;-;0.1820215;1.2645704;9.77168;0.034401163;0.038973883;-0.0054339888;-15.900001;35.100002;-41.100002;21.159943;-7.67802;-0.32126132;1020.6811;-;-;51.52525994;-0.13354957;2.8499999046325684
1531048858410;-;-;0.12933107;1.22146;9.74773;0.023748519;0.032049667;-0.012890839;-15.750001;36.300003;-39.600002;21.159735;-7.721628;-0.35560763;1020.6811;-;-;51.52525994;-0.13354957;2.8499999046325684
1531048858420;-;-;0.13891114;1.2837305;9.72378;3.1270116E-4;0.017668596;-0.006499253;-15.750001;36.300003;-39.600002;21.159735;-7.721628;-0.35560763;1020.6811;-;-;51.52525994;-0.13354957;2.8499999046325684
1531048858430;-;-;0.20597169;1.3124708;9.7812605;-0.0060788854;0.0054180548;-0.008629782;-17.25;37.5;-40.65;21.163141;-7.756599;-0.3968478;1020.6811;-;-;51.52525994;-0.13354957;2.8499999046325684
1531048858441;-;-;0.119750984;1.2693604;9.972861;-0.00714415;-0.011093544;-0.0017055629;-17.25;37.5;-40.65;21.163141;-7.756599;-0.3968478;1020.6811;-;-;51.52525994;-0.13354957;2.8499999046325684
1531048858451;-;-;0.14849122;1.2166699;10.0063925;-0.0087420475;-0.023344086;-0.0011729307;-18.0;36.45;-40.65;21.164993;-7.7582774;-0.40941972;1020.6735;-;-;51.52525994;-0.13354957;2.8499999046325684
1531048858461;-;-;0.18681154;1.2645704;9.920172;0.010432713;-0.016419867;0.0030881271;-18.0;36.45;-40.65;21.164993;-7.7582774;-0.40941972;1020.6735;-;-;51.52525994;-0.13354957;2.8499999046325684
1531048858471;-;-;0.27303225;1.2358302;9.833951;0.02161799;0.0022222616;4.2496598E-4;-18.150002;37.350002;-40.5;21.165539;-7.7486825;-0.3943791;1020.6735;-;-;51.52525994;-0.13354957;2.8499999046325684
1531048858481;-;-;0.21555176;1.2885206;9.82437;0.027476944;0.014472802;-0.009695047;-18.150002;37.350002;-40.5;21.165539;-7.7486825;-0.3943791;1020.6735;-;-;51.52525994;-0.13354957;2.8499999046325684
1531048858494;-;-;0.20597169;1.3507911;9.8866415;0.039727487;-0.0078977505;-0.004901356;-16.95;37.5;-39.0;21.163437;-7.759781;-0.37613672;1020.6735;-;-;51.52525994;-0.13354957;2.8499999046325684
1531048858502;-;-;0.16286133;1.2070899;9.83874;0.033335898;-4.4089952E-4;-0.0043687243;-16.95;37.5;-39.0;21.163437;-7.759781;-0.37613672;1020.6735;-;-;51.52525994;-0.13354957;2.8499999046325684
1531048858512;-;-;0.17723145;1.2741505;9.704619;0.023215886;0.0011569972;-0.0075645177;-17.1;35.7;-40.050003;21.169456;-7.784886;-0.38544083;1020.6735;-;-;51.52525994;-0.13354957;2.8499999046325684
1531048858522;-;-;0.14849122;1.2741505;9.881851;0.016291667;-0.0020387962;-0.01076031;-17.1;35.7;-40.050003;21.169456;-7.784886;-0.38544083;1020.6735;-;-;51.52525994;-0.13354957;2.8499999046325684
1531048858533;-;-;0.1580713;1.2837305;9.8866415;0.011497978;-0.0062998543;-0.015554001;-16.650002;35.850002;-41.550003;21.179287;-7.8223734;-0.38222575;1020.6735;-;-;51.52525994;-0.13354957;2.8499999046325684
1531048858543;-;-;0.244292;1.1975098;9.79563;0.0088348165;9.173271E-5;-0.010227678;-16.650002;35.850002;-41.550003;21.179287;-7.8223734;-0.38222575;1020.6735;-;-;51.52525994;-0.13354957;2.8499999046325684
1531048858552;-;-;0.28740236;1.2454102;9.7142;-0.009807311;0.013407539;-0.0118255755;-18.300001;37.800003;-40.2;21.189913;-7.846702;-0.38097218;1020.6778;-;-;51.52525994;-0.13354957;2.8499999046325684
1531048858562;-;-;0.20118165;1.2645704;9.75731;-0.0060788854;0.024592815;-0.014488736;-18.300001;37.800003;-40.2;21.189913;-7.846702;-0.38097218;1020.6778;-;-;51.52525994;-0.13354957;2.8499999046325684
1531048858572;-;-;0.11496094;1.2454102;9.7621;-0.0044809887;0.030451767;-0.015021368;-16.5;35.7;-38.100002;21.204884;-7.8572783;-0.38914722;1020.6778;-;-;51.52525994;-0.13354957;2.8499999046325684
1531048858582;-;-;0.12933107;1.21188;9.72857;-0.012470473;0.018733859;-0.009695047;-16.5;35.7;-38.100002;21.204884;-7.8572783;-0.38914722;1020.6778;-;-;51.52525994;-0.13354957;2.8499999046325684
1531048858592;-;-;0.10538086;1.2789404;9.74294;-0.017796796;0.0059506875;-0.014488736;-15.6;35.850002;-38.25;21.216478;-7.850379;-0.4204189;1020.6778;-;-;51.52525994;-0.13354957;2.8499999046325684
1531048858603;-;-;0.12933107;1.3268409;9.867481;-0.022590484;-0.008963015;-0.012890839;-15.6;35.850002;-38.25;21.216478;-7.850379;-0.4204189;1020.6778;-;-;51.52525994;-0.13354957;2.8499999046325684
1531048858613;-;-;0.100590825;1.22625;9.881851;-0.013535737;-0.027605144;-0.0043687243;-13.650001;36.0;-39.300003;21.222343;-7.8359795;-0.44403365;1020.6778;-;-;51.52525994;-0.13354957;2.8499999046325684
1531048858623;-;-;0.1101709;1.2358302;9.79563;-0.013535737;-0.032931466;-0.0075645177;-13.650001;36.0;-39.300003;21.222343;-7.8359795;-0.44403365;1020.6778;-;-;51.52525994;-0.13354957;2.8499999046325684
1531048858633;-;-;0.17723145;1.2549903;9.877061;-0.01673153;-4.4089952E-4;-0.008629782;-16.050001;36.600002;-40.95;21.231325;-7.812809;-0.42997903;1020.6778;-;-;51.52525994;-0.13354957;2.8499999046325684
1531048858643;-;-;0.12933107;1.3028907;9.81;-0.010339944;0.013940171;-0.0059666205;-16.050001;36.600002;-40.95;21.231325;-7.812809;-0.42997903;1020.6778;-;-;51.52525994;-0.13354957;2.8499999046325684
1531048858654;-;-;0.14370118;1.3172607;9.814791;-0.025253646;0.017668596;-0.0011729307;-15.150001;37.350002;-39.300003;21.239763;-7.8017936;-0.40543696;1020.6859;-;-;51.52525994;-0.13354957;2.8499999046325684
1531048858664;-;-;0.14370118;1.3124708;9.766891;-0.03750419;0.019266492;0.007881817;-15.450001;34.95;-39.600002;21.245514;-7.7848296;-0.41646367;1020.6859;-;-;51.52525994;-0.13354957;2.8499999046325684
1531048858674;-;-;0.14370118;1.2502003;9.7142;-0.053483155;0.022994917;0.002555495;-15.450001;34.95;-39.600002;21.245514;-7.7848296;-0.41646367;1020.6859;-;-;51.52525994;-0.13354957;2.8499999046325684
1531048858684;-;-;0.081430666;1.3172607;9.74773;-0.06147264;0.006483319;0.004686024;-14.400001;35.25;-38.100002;21.242817;-7.7449303;-0.43879876;1020.6859;-;-;51.52525994;-0.13354957;2.8499999046325684
1531048858695;-;-;0.086220704;1.2502003;10.039923;-0.08331056;-0.029735673;0.014806037;-14.400001;35.25;-38.100002;21.242817;-7.7449303;-0.43879876;1020.6859;-;-;51.52525994;-0.13354957;2.8499999046325684
1531048858705;-;-;0.15328126;1.2933106;10.078242;-0.0774516;-0.032931466;0.013208139;-13.950001;34.5;-37.800003;21.234934;-7.6730733;-0.4525485;1020.6859;-;-;51.52525994;-0.13354957;2.8499999046325684
1531048858715;-;-;0.1101709;1.2933106;10.097403;-0.048689462;-0.041986212;0.0153386695;-13.950001;34.5;-37.800003;21.234934;-7.6730733;-0.4525485;1020.6859;-;-;51.52525994;-0.13354957;2.8499999046325684
1531048858726;-;-;0.1341211;1.2549903;10.197993;-0.025786279;-0.046247274;0.012142875;-13.200001;35.4;-38.7;21.221004;-7.587791;-0.416739;1020.6859;-;-;51.52525994;-0.13354957;2.8499999046325684
1531048858737;-;-;0.1580713;1.336421;10.408755;0.023748519;-0.063291505;0.0073491847;-13.200001;35.4;-38.7;21.221004;-7.587791;-0.416739;1020.6859;-;-;51.52525994;-0.13354957;2.8499999046325684
1531048858747;-;-;0.23471193;1.346001;10.226734;0.044521175;-0.049975697;0.0020228627;-15.750001;35.25;-40.050003;21.217257;-7.5497;-0.36381575;1020.6838;-;-;51.52525994;-0.13354957;2.8499999046325684
1531048858758;-;-;0.22513184;1.331631;9.939331;0.06902226;-0.0020387962;-6.402985E-4;-15.750001;35.25;-40.050003;21.217257;-7.5497;-0.36381575;1020.6838;-;-;51.52525994;-0.13354957;2.8499999046325684
1531048858767;-;-;0.17244141;1.3172607;9.800421;0.06369594;0.006483319;-0.008629782;-13.500001;35.4;-37.800003;21.219675;-7.593009;-0.30417076;1020.6838;-;-;51.52525994;-0.13354957;2.8499999046325684
1531048858778;-;-;0.06706055;1.3172607;9.848321;0.05038013;-0.018017763;0.0030881271;-13.500001;35.4;-37.800003;21.219675;-7.593009;-0.30417076;1020.6838;-;-;51.52525994;-0.13354957;2.8499999046325684
1531048858788;-;-;0.07664063;1.3603711;9.75252;0.025346415;-0.010560912;0.012142875;-14.85;35.850002;-38.25;21.227167;-7.6721306;-0.30111155;1020.6838;-;-;51.52525994;-0.13354957;2.8499999046325684
1531048858798;-;-;0.13891114;1.3172607;9.72857;0.012029768;-0.0015118526;0.008391719;-14.85;35.850002;-38.25;21.227167;-7.6721306;-0.30111155;1020.6838;-;-;51.52525994;-0.13354957;2.8499999046325684
1531048858809;-;-;0.16286133;1.336421;9.7142;-0.011938682;0.0357724;-0.0070546158;-14.55;35.100002;-39.9;21.224054;-7.720967;-0.28470927;1020.6838;-;-;51.52525994;-0.13354957;2.8499999046325684
1531048858819;-;-;0.17244141;1.2981006;9.77647;-0.017797638;0.029913448;-0.006521983;-14.55;35.100002;-39.9;21.224054;-7.720967;-0.28470927;1020.6838;-;-;51.52525994;-0.13354957;2.8499999046325684
1531048858829;-;-;0.081430666;1.2358302;9.8866415;-0.0066123605;8.604408E-5;-1.3039657E-4;-14.1;35.25;-40.5;21.216;-7.723826;-0.2969392;1020.6838;-;-;51.52525994;-0.13354957;2.8499999046325684
1531048858840;-;-;0.11496094;1.1496094;9.872271;-0.0076776245;-0.023882408;0.0057285577;-14.1;35.25;-40.5;21.216;-7.723826;-0.2969392;1020.68475;-;-;51.52525994;-0.13354957;2.8499999046325684
1531048858849;-;-;0.119750984;1.2933106;9.862691;-0.0071449927;-0.030273993;0.013185408;-13.35;36.300003;-39.600002;21.211063;-7.710186;-0.32107466;1020.68475;-;-;51.52525994;-0.13354957;2.8499999046325684
1531048858859;-;-;0.16286133;1.3268409;10.0063925;-0.003416567;-0.029208729;0.01584857;-13.35;36.300003;-39.600002;21.211063;-7.710186;-0.32107466;1020.68475;-;-;51.52525994;-0.13354957;2.8499999046325684
1531048858870;-;-;0.20597169;1.2741505;10.039923;0.0109645035;-0.024947671;0.022240156;-14.55;35.850002;-38.7;21.203382;-7.6992784;-0.2926341;1020.68475;-;-;51.52525994;-0.13354957;2.8499999046325684
1531048858880;-;-;0.17244141;1.2406201;10.039923;0.029073998;-0.029741362;0.007326454;-14.55;35.850002;-38.7;21.203382;-7.6992784;-0.2926341;1020.68475;-;-;51.52525994;-0.13354957;2.8499999046325684
1531048858890;-;-;0.17244141;1.3124708;9.939331;0.056770876;-0.024947671;0.0099896155;-15.150001;36.0;-37.65;21.190002;-7.6948752;-0.25395048;1020.68475;-;-;51.52525994;-0.13354957;2.8499999046325684
1531048858900;-;-;0.1101709;1.2933106;9.915381;0.07008668;-0.020686613;0.003598029;-15.150001;36.0;-37.65;21.190002;-7.6948752;-0.25395048;1020.68475;-;-;51.52525994;-0.13354957;2.8499999046325684
1531048858911;-;-;0.12933107;1.2885206;9.963282;0.07115194;-0.012164497;9.348679E-4;-15.150001;34.65;-38.4;21.187687;-7.733115;-0.22133614;1020.68475;-;-;51.52525994;-0.13354957;2.8499999046325684
1531048858921;-;-;0.1101709;1.2789404;9.877061;0.08606565;-0.013229761;-0.0070546158;-15.150001;34.65;-38.4;21.187687;-7.733115;-0.22133614;1020.68475;-;-;51.52525994;-0.13354957;2.8499999046325684
1531048858931;-;-;0.09101075;1.2358302;9.82437;0.08926144;-0.021219246;-0.018772524;-14.400001;36.0;-38.850002;21.190172;-7.811091;-0.20175973;1020.68475;-;-;51.52525994;-0.13354957;2.8499999046325684
1531048858942;-;-;0.009580079;1.3939015;9.77647;0.07221721;-0.0435898;0.0020001323;-14.400001;36.0;-38.850002;21.190172;-7.811091;-0.20175973;1020.6799;-;-;51.52525994;-0.13354957;2.8499999046325684
1531048858952;-;-;0.12933107;1.2741505;9.862691;0.070619315;-0.08034142;0.008391719;-15.150001;34.95;-40.050003;21.209244;-7.9096065;-0.18749723;1020.6799;-;-;51.52525994;-0.13354957;2.8499999046325684
1531048858962;-;-;0.14849122;1.2741505;9.814791;0.078608796;-0.10697303;0.009456983;-15.150001;34.95;-40.050003;21.209244;-7.9096065;-0.18749723;1020.6799;-;-;51.52525994;-0.13354957;2.8499999046325684
1531048858972;-;-;0.21076173;1.3795313;9.848321;0.092457235;-0.122419365;0.0099896155;-14.400001;36.600002;-39.300003;21.219664;-7.9945345;-0.13379113;1020.6799;-;-;51.52525994;-0.13354957;2.8499999046325684
1531048858982;-;-;0.22992188;1.4226416;9.74294;0.094587766;-0.109636195;0.0099896155;-14.400001;36.600002;-39.300003;21.219664;-7.9945345;-0.13379113;1020.6799;-;-;51.52525994;-0.13354957;2.8499999046325684
1531048858993;-;-;0.244292;1.336421;9.80521;0.094587766;-0.08726564;0.0057285577;-16.35;37.800003;-38.7;21.222101;-8.084923;-0.011680051;1020.6799;-;-;51.52525994;-0.13354957;2.8499999046325684
1531048859003;-;-;0.19160157;1.3699512;9.83874;0.1100341;-0.08353721;0.007859087;-16.35;37.800003;-38.7;21.222101;-8.084923;-0.011680051;1020.6799;-;-;51.52525994;-0.13354957;2.8499999046325684
1531048859013;-;-;0.29698244;1.4897022;9.85311;0.108436204;-0.09738565;0.011587512;-15.3;35.100002;-39.45;21.227766;-8.193652;0.11084582;1020.6799;-;-;51.52525994;-0.13354957;2.8499999046325684
1531048859024;-;-;0.32093263;1.3986914;9.915381;0.101511985;-0.095787756;0.014250673;-16.35;35.850002;-37.800003;21.227766;-8.193652;0.11084582;1020.6799;-;-;51.52525994;-0.13354957;2.8499999046325684
1531048859034;-;-;0.3784131;1.4897022;9.929751;0.10470778;-0.085667744;0.0062611904;-16.35;35.850002;-37.800003;21.233585;-8.309864;0.21411741;1020.6799;-;-;51.52525994;-0.13354957;2.8499999046325684
1531048859043;-;-;0.45505372;1.4801221;9.800421;0.0935225;-0.07075404;0.007326454;-14.250001;36.15;-40.65;21.233585;-8.309864;0.21411741;1020.6709;-;-;51.52525994;-0.13354957;2.8499999046325684
1531048859054;-;-;0.3544629;1.4944923;9.75731;0.08500038;-0.060634032;-0.009185145;-14.250001;36.15;-40.65;21.237995;-8.430491;0.32004255;1020.6709;-;-;51.52525994;-0.13354957;2.8499999046325684
1531048859063;-;-;0.20597169;1.5663428;9.766891;0.072749846;-0.053709812;-0.00811988;-15.750001;36.300003;-38.850002;21.245243;-8.537589;0.40985996;1020.6709;-;-;51.52525994;-0.13354957;2.8499999046325684
1531048859074;-;-;0.21555176;1.5663428;9.81958;0.049314022;-0.061699294;0.0062611904;-15.750001;36.300003;-38.850002;21.245243;-8.537589;0.40985996;1020.6709;-;-;51.52525994;-0.13354957;2.8499999046325684
1531048859084;-;-;0.27303225;1.5807129;9.7812605;0.034932952;-0.06702562;0.007859087;-18.150002;36.300003;-38.850002;21.258413;-8.616915;0.47226545;1020.6709;-;-;51.52525994;-0.13354957;2.8499999046325684
1531048859094;-;-;0.4263135;1.590293;9.7621;0.0072360775;-0.0015118526;0.006793822;-18.150002;36.300003;-38.850002;21.258413;-8.616915;0.47226545;1020.6709;-;-;51.52525994;-0.13354957;2.8499999046325684
1531048859105;-;-;0.45505372;1.6381935;9.685459;-0.0023513027;0.029913448;-0.00811988;-16.050001;35.25;-39.600002;21.258413;-8.616915;0.47226545;1020.6709;-;-;51.52525994;-0.13354957;2.8499999046325684
1531048859114;-;-;0.2682422;1.465752;9.901011;-0.031646073;0.04749031;-0.009717776;-16.050001;35.25;-39.600002;21.255667;-8.656095;0.53604865;1020.6709;-;-;51.52525994;-0.13354957;2.8499999046325684
1531048859125;-;-;0.14370118;1.5663428;10.044712;-0.025254488;0.037902933;-0.0017282933;-15.3;35.100002;-36.600002;21.25713;-8.649727;0.5055194;1020.6709;-;-;51.52525994;-0.13354957;2.8499999046325684
1531048859135;-;-;0.244292;1.5376027;10.092612;-0.0071449927;0.0075428956;0.005195925;-15.3;35.100002;-36.600002;21.25713;-8.649727;0.5055194;1020.6709;-;-;51.52525994;-0.13354957;2.8499999046325684
1531048859145;-;-;0.3065625;1.5328126;10.015972;0.020019252;-0.007903439;0.0057285577;-15.150001;35.25;-39.300003;21.255877;-8.617274;0.46515405;1020.6724;-;-;51.52525994;-0.13354957;2.8499999046325684
1531048859155;-;-;0.3784131;1.5232325;9.862691;0.03919401;0.019260803;-0.0075872475;-15.150001;35.25;-39.300003;21.255877;-8.617274;0.46515405;1020.6724;-;-;51.52525994;-0.13354957;2.8499999046325684
1531048859166;-;-;0.41194338;1.5711329;9.77647;0.029606631;0.026717655;-0.013978835;-16.650002;34.5;-38.7;21.247152;-8.631805;0.46690658;1020.6724;-;-;51.52525994;-0.13354957;2.8499999046325684
1531048859176;-;-;0.3544629;1.5040723;9.671089;0.011497136;0.045892414;-0.006521983;-16.650002;34.5;-38.7;21.247152;-8.631805;0.46690658;1020.6724;-;-;51.52525994;-0.13354957;2.8499999046325684
1531048859186;-;-;0.25387207;1.456172;9.627979;-0.010873418;0.036837667;-0.004391454;-15.6;35.850002;-39.9;21.247389;-8.669972;0.44046345;1020.6724;-;-;51.52525994;-0.13354957;2.8499999046325684
1531048859196;-;-;0.23471193;1.4370118;9.656719;-0.019395534;0.027250286;0.0057285577;-15.6;35.850002;-39.9;21.247389;-8.669972;0.44046345;1020.6724;-;-;51.52525994;-0.13354957;2.8499999046325684
1531048859207;-;-;0.2778223;1.4274317;9.594449;-0.023656592;0.021923965;0.011587512;-15.750001;34.65;-40.5;21.241829;-8.66757;0.39871433;1020.6724;-;-;51.52525994;-0.13354957;2.8499999046325684
1531048859218;-;-;0.2778223;1.465752;9.82437;-0.024189223;0.008075528;0.009456983;-15.750001;34.65;-40.5;21.241829;-8.66757;0.39871433;1020.6724;-;-;51.52525994;-0.13354957;2.8499999046325684
1531048859229;-;-;0.33530274;1.4370118;9.953702;-0.015134476;0.0038144696;0.008391719;-15.900001;34.5;-38.7;21.229065;-8.640157;0.37838474;1020.6724;-;-;51.52525994;-0.13354957;2.8499999046325684
1531048859238;-;-;0.42152345;1.4609619;9.901011;-0.0044818316;8.604408E-5;0.006793822;-15.900001;34.5;-38.7;21.229065;-8.640157;0.37838474;1020.6627;-;-;51.52525994;-0.13354957;2.8499999046325684
1531048859248;-;-;0.40715334;1.5519727;9.877061;0.006170813;-0.0025771172;-0.0070546158;-15.6;36.15;-38.7;21.217045;-8.616775;0.36993456;1020.6627;-;-;51.52525994;-0.13354957;2.8499999046325684
1531048859259;-;-;0.34967285;1.4178516;9.81;0.020551883;0.0038144696;-0.008652512;-15.6;36.15;-38.7;21.217045;-8.616775;0.36993456;1020.6627;-;-;51.52525994;-0.13354957;2.8499999046325684
1531048859268;-;-;0.21555176;1.4226416;9.915381;0.030139264;0.028315552;-0.009717776;-16.35;34.050003;-39.45;21.21254;-8.616697;0.37325367;1020.6627;-;-;51.52525994;-0.13354957;2.8499999046325684
1531048859279;-;-;0.16286133;1.4370118;9.867481;0.03226979;0.017662907;-0.0022609255;-16.35;34.050003;-39.45;21.21254;-8.616697;0.37325367;1020.6627;-;-;51.52525994;-0.13354957;2.8499999046325684
1531048859289;-;-;0.28740236;1.4274317;9.73815;0.034932952;0.0107386885;9.348679E-4;-15.450001;35.7;-38.4;21.219961;-8.6461315;0.35393944;1020.6627;-;-;51.52525994;-0.13354957;2.8499999046325684
1531048859300;-;-;0.3065625;1.4513819;9.685459;0.025344279;0.013393106;-0.012415875;-15.450001;35.7;-38.4;21.219961;-8.6461315;0.35393944;1020.6627;-;-;51.52525994;-0.13354957;2.8499999046325684
1531048859310;-;-;0.23950197;1.4897022;9.80521;0.009897944;0.029372074;-0.0065569207;-15.3;34.050003;-39.0;21.22452;-8.682294;0.34053376;1020.6627;-;-;51.52525994;-0.13354957;2.8499999046325684
1531048859320;-;-;0.3065625;1.4513819;9.7621;0.0019084602;0.020849958;-0.0054916563;-15.3;34.050003;-39.0;21.22452;-8.682294;0.34053376;1020.6627;-;-;51.52525994;-0.13354957;2.8499999046325684
1531048859330;-;-;0.3544629;1.3986914;9.651929;0.006169518;0.021915222;-0.009220082;-17.1;33.600002;-38.100002;21.230474;-8.702938;0.31664115;1020.6627;-;-;51.52525994;-0.13354957;2.8499999046325684
1531048859340;-;-;0.3305127;1.4322218;9.75731;0.0120284725;0.008066784;-0.011883244;-17.1;33.600002;-38.100002;21.230474;-8.702938;0.31664115;1020.6619;-;-;51.52525994;-0.13354957;2.8499999046325684
1531048859351;-;-;0.20597169;1.3986914;9.604029;0.006169518;0.0011425649;-0.014546404;-14.85;35.100002;-37.800003;21.231276;-8.707683;0.2934182;1020.6619;-;-;51.52525994;-0.13354957;2.8499999046325684
1531048859360;-;-;0.22992188;1.3220508;9.570498;-0.0023525977;-0.0025858607;-0.0060242885;-14.85;35.100002;-37.800003;21.231276;-8.707683;0.2934182;1020.6619;-;-;51.52525994;-0.13354957;2.8499999046325684
1531048859371;-;-;0.16765137;1.4034815;9.445957;-0.023125254;0.0048709903;-0.0012305984;-16.050001;36.0;-37.65;21.240395;-8.7204485;0.28552088;1020.6619;-;-;51.52525994;-0.13354957;2.8499999046325684
1531048859381;-;-;0.20597169;1.456172;9.479487;-0.04070212;0.010729944;-6.979662E-4;-16.050001;36.0;-37.65;21.240395;-8.7204485;0.28552088;1020.6619;-;-;51.52525994;-0.13354957;2.8499999046325684
1531048859391;-;-;0.22992188;1.336421;9.532178;-0.06626847;0.012860473;0.012085207;-16.050001;36.0;-37.65;21.246527;-8.711734;0.28220385;1020.6619;-;-;51.52525994;-0.13354957;2.8499999046325684
1531048859401;-;-;0.25866213;1.3699512;9.685459;-0.08278006;0.011262577;0.012085207;-16.050001;36.0;-37.65;21.246527;-8.711734;0.28220385;1020.6619;-;-;51.52525994;-0.13354957;2.8499999046325684
1531048859412;-;-;0.23471193;1.4609619;9.920172;-0.08863902;-0.010575345;0.014748368;-16.95;34.800003;-38.25;21.237856;-8.657823;0.2689371;1020.6619;-;-;51.52525994;-0.13354957;2.8499999046325684
1531048859422;-;-;0.20597169;1.4130616;9.996812;-0.07266005;-0.014836403;0.007824149;-16.95;34.800003;-38.25;21.237856;-8.657823;0.2689371;1020.6619;-;-;51.52525994;-0.13354957;2.8499999046325684
1531048859432;-;-;0.2778223;1.3986914;9.915381;-0.052952662;-0.030282736;0.011552574;-15.450001;34.2;-39.300003;21.223263;-8.562632;0.27049065;1020.6619;-;-;51.52525994;-0.13354957;2.8499999046325684
1531048859443;-;-;0.27303225;1.4226416;9.891431;-0.030049473;-0.028152209;-0.0038937596;-15.750001;34.65;-37.65;21.214071;-8.482612;0.28888726;1020.65295;-;-;51.52525994;-0.13354957;2.8499999046325684
1531048859453;-;-;0.25387207;1.3651612;9.944121;8.431957E-4;-0.039870117;-1.6533397E-4;-15.750001;34.65;-37.65;21.214071;-8.482612;0.28888726;1020.65295;-;-;51.52525994;-0.13354957;2.8499999046325684
1531048859485;-;-;0.28261232;1.4178516;9.604029;-0.02259262;-0.003118493;-0.007622185;-15.750001;33.9;-39.300003;21.220743;-8.455715;0.36375365;1020.65295;-;-;51.52525994;-0.13354957;2.8499999046325684
1531048859480;-;-;0.4023633;1.3891114;9.627979;-0.008744185;-0.0057816543;-0.0033611273;-15.6;36.9;-38.25;21.21849;-8.452974;0.3211849;1020.65295;-;-;51.52525994;-0.13354957;2.8499999046325684
1531048859477;-;-;0.28740236;1.3939015;9.656719;-0.0018199654;-0.0020532284;-0.0054916563;-15.6;36.9;-38.25;21.21849;-8.452974;0.3211849;1020.65295;-;-;51.52525994;-0.13354957;2.8499999046325684
1531048859496;-;-;0.20597169;1.4274317;9.666299;-0.042832647;0.02404575;0.0024978272;-15.750001;33.9;-39.300003;21.220743;-8.455715;0.36375365;1020.65295;-;-;51.52525994;-0.13354957;2.8499999046325684
1531048859505;-;-;0.24908204;1.3843213;9.613608;-0.06786636;0.028306808;-0.0060242885;-16.800001;36.0;-39.300003;21.226858;-8.438325;0.3672688;1020.65295;-;-;51.52525994;-0.13354957;2.8499999046325684
1531048859516;-;-;0.19160157;1.4322218;9.613608;-0.09716114;0.022980485;3.6729826E-4;-16.800001;36.0;-39.300003;21.226858;-8.438325;0.3672688;1020.65295;-;-;51.52525994;-0.13354957;2.8499999046325684
1531048859526;-;-;0.1820215;1.4226416;9.72857;-0.106748514;0.020849958;0.008356782;-17.7;36.15;-40.65;21.220816;-8.364289;0.34138936;1020.65295;-;-;51.52525994;-0.13354957;2.8499999046325684
1531048859536;-;-;0.15328126;1.3986914;9.881851;-0.10568325;0.009664681;0.013683103;-17.7;36.15;-40.65;21.220816;-8.364289;0.34138936;1020.6571;-;-;51.52525994;-0.13354957;2.8499999046325684
1531048859547;-;-;0.19639161;1.336421;9.987232;-0.084910594;0.005403623;0.017411528;-18.0;36.45;-39.45;21.203474;-8.249651;0.31942195;1020.6571;-;-;51.52525994;-0.13354957;2.8499999046325684
1531048859556;-;-;0.2203418;1.3891114;9.891431;-0.063072674;0.0022078294;0.022205219;-18.0;36.45;-39.45;21.203474;-8.249651;0.31942195;1020.6571;-;-;51.52525994;-0.13354957;2.8499999046325684
1531048859566;-;-;0.18681154;1.4178516;9.934542;-0.053485293;0.007534152;0.021672586;-17.1;36.300003;-39.600002;21.178755;-8.143849;0.3148655;1020.6571;-;-;51.52525994;-0.13354957;2.8499999046325684
1531048859576;-;-;0.18681154;1.346001;10.049502;-0.049756866;-4.5533176E-4;0.019009426;-17.1;36.300003;-39.600002;21.178755;-8.143849;0.3148655;1020.6571;-;-;51.52525994;-0.13354957;2.8499999046325684
1531048859586;-;-;0.16765137;1.3603711;10.001602;-0.040169485;-0.0052490216;0.023270484;-16.95;35.100002;-39.0;21.156382;-8.074496;0.31622314;1020.6571;-;-;51.52525994;-0.13354957;2.8499999046325684
1531048859596;-;-;0.081430666;1.3603711;10.054293;-0.045495808;-0.032413267;0.027531542;-16.95;35.100002;-39.0;21.156382;-8.074496;0.31622314;1020.6571;-;-;51.52525994;-0.13354957;2.8499999046325684
1531048859607;-;-;0.20597169;1.3603711;10.030342;-0.030582106;-0.03560906;0.035521027;-18.75;35.850002;-41.100002;21.133791;-8.02238;0.32596835;1020.6571;-;-;51.52525994;-0.13354957;2.8499999046325684
1531048859617;-;-;0.24908204;1.4034815;9.939331;-0.027386311;-0.01909746;0.029129436;-18.75;35.850002;-41.100002;21.133791;-8.02238;0.32596835;1020.6571;-;-;51.52525994;-0.13354957;2.8499999046325684
1531048859627;-;-;0.33530274;1.3986914;9.929751;-0.025255783;-0.011640608;0.008889414;-16.650002;36.45;-39.45;21.109526;-7.978919;0.36519507;1020.6571;-;-;51.52525994;-0.13354957;2.8499999046325684
1531048859637;-;-;0.21555176;1.3555812;9.934542;-0.014603139;0.007001519;0.0035630916;-16.650002;36.45;-39.45;21.109526;-7.978919;0.36519507;1020.6538;-;-;51.52525994;-0.13354957;2.8499999046325684
1531048859648;-;-;0.086220704;1.3843213;9.920172;-0.023125254;-0.004183757;0.01315047;-16.650002;35.100002;-40.2;21.091385;-7.95195;0.3837031;1020.6538;-;-;51.52525994;-0.13354957;2.8499999046325684
1531048859658;-;-;0.23950197;1.4465919;9.939331;-0.019396828;-0.010042712;0.021672586;-16.650002;35.100002;-40.2;21.091385;-7.95195;0.3837031;1020.6538;-;-;51.52525994;-0.13354957;2.8499999046325684
1531048859668;-;-;0.29698244;1.3939015;9.929751;-0.023125254;-0.01909746;0.021139955;-15.750001;36.0;-39.600002;21.077488;-7.9308004;0.38546088;1020.6538;-;-;51.52525994;-0.13354957;2.8499999046325684
1531048859679;-;-;0.244292;1.3699512;10.063872;-0.0039504943;-0.026021678;0.023270484;-15.750001;36.0;-39.600002;21.077488;-7.9308004;0.38546088;1020.6538;-;-;51.52525994;-0.13354957;2.8499999046325684
1531048859688;-;-;0.23950197;1.4705421;9.992022;0.014691633;-0.020695357;0.014215736;-15.750001;34.95;-38.100002;21.058823;-7.9052887;0.4017265;1020.6538;-;-;51.52525994;-0.13354957;2.8499999046325684
1531048859698;-;-;0.25866213;1.4034815;9.944121;0.021615854;-0.008977448;0.019542059;-15.750001;34.95;-38.100002;21.058823;-7.9052887;0.4017265;1020.6538;-;-;51.52525994;-0.13354957;2.8499999046325684
1531048859708;-;-;0.22513184;1.4465919;9.81958;0.022148486;-0.010042712;0.021139955;-16.95;35.4;-39.0;21.04395;-7.9052086;0.43049857;1020.6538;-;-;51.52525994;-0.13354957;2.8499999046325684
1531048859719;-;-;0.26345217;1.3747413;9.77647;0.008300046;0.011262577;0.009954678;-16.95;35.4;-39.0;21.04395;-7.9052086;0.43049857;1020.6538;-;-;51.52525994;-0.13354957;2.8499999046325684
1531048859728;-;-;0.27303225;1.4274317;9.77168;-0.0039504943;0.014458369;0.01315047;-17.1;36.600002;-40.050003;21.026829;-7.932174;0.44341922;1020.6538;-;-;51.52525994;-0.13354957;2.8499999046325684
1531048859738;-;-;0.2682422;1.3747413;9.929751;-0.031114737;0.009132048;0.022737851;-17.1;36.600002;-40.050003;21.026829;-7.932174;0.44341922;1020.648;-;-;51.52525994;-0.13354957;2.8499999046325684
1531048859748;-;-;0.2682422;1.3699512;9.953702;-0.043897912;-0.010575345;0.018476794;-16.650002;34.800003;-37.5;21.010118;-7.9363923;0.4338621;1020.648;-;-;51.52525994;-0.13354957;2.8499999046325684
1531048859758;-;-;0.23950197;1.3747413;9.977652;-0.040169485;-0.020162724;0.017411528;-16.650002;34.800003;-37.5;21.010118;-7.9363923;0.4338621;1020.648;-;-;51.52525994;-0.13354957;2.8499999046325684
1531048859769;-;-;0.23471193;1.3603711;9.977652;-0.02951684;-0.03507643;0.020607322;-15.150001;35.25;-39.300003;20.991838;-7.8958244;0.43607044;1020.648;-;-;51.52525994;-0.13354957;2.8499999046325684
1531048859778;-;-;0.32093263;1.336421;9.8866415;-0.0071462877;-0.023891151;0.012085207;-15.150001;35.25;-39.300003;20.991838;-7.8958244;0.43607044;1020.648;-;-;51.52525994;-0.13354957;2.8499999046325684
1531048859788;-;-;0.28740236;1.3268409;9.872271;0.013093737;-0.024956414;0.008889414;-16.800001;34.65;-38.4;20.977629;-7.8578477;0.4644577;1020.648;-;-;51.52525994;-0.13354957;2.8499999046325684
1531048859799;-;-;0.2778223;1.3172607;9.843531;0.016821194;-0.007386082;0.013124373;-16.800001;34.65;-38.4;20.977629;-7.8578477;0.4644577;1020.648;-;-;51.52525994;-0.13354957;2.8499999046325684
1531048859809;-;-;0.23471193;1.3747413;9.79084;0.015223298;0.0059297234;0.0136570055;-15.450001;36.600002;-40.050003;20.964695;-7.8557186;0.497749;1020.648;-;-;51.52525994;-0.13354957;2.8499999046325684
1531048859819;-;-;0.34009278;1.3028907;9.857901;0.0077664475;0.0075276205;0.016320167;-15.450001;36.600002;-40.050003;20.964695;-7.8557186;0.497749;1020.648;-;-;51.52525994;-0.13354957;2.8499999046325684
1531048859829;-;-;0.27303225;1.3172607;9.905801;-0.011940945;0.0075276205;0.021113858;-15.450001;35.25;-39.300003;20.949028;-7.8693933;0.5069521;1020.649;-;-;51.52525994;-0.13354957;2.8499999046325684
1531048859839;-;-;0.3161426;1.3651612;9.8866415;-0.014071474;0.009125517;0.02377702;-15.450001;35.25;-39.300003;20.949028;-7.8693933;0.5069521;1020.649;-;-;51.52525994;-0.13354957;2.8499999046325684
1531048859850;-;-;0.28261232;1.2549903;9.82437;-0.009277784;0.004864459;0.023244387;-16.95;36.45;-39.9;20.92409;-7.86773;0.50006366;1020.649;-;-;51.52525994;-0.13354957;2.8499999046325684
1531048859860;-;-;0.3161426;1.3124708;9.934542;-0.010875681;0.006994988;0.023244387;-16.95;36.45;-39.9;20.92409;-7.86773;0.50006366;1020.649;-;-;51.52525994;-0.13354957;2.8499999046325684
1531048859870;-;-;0.3544629;1.3603711;9.8866415;0.002440125;-0.0031250243;0.022179121;-15.3;35.850002;-38.7;20.898394;-7.8527064;0.4924343;1020.649;-;-;51.52525994;-0.13354957;2.8499999046325684
1531048859880;-;-;0.39757326;1.2741505;10.001602;0.011494873;-0.008983979;0.024842283;-15.3;35.850002;-38.7;20.898394;-7.8527064;0.4924343;1020.649;-;-;51.52525994;-0.13354957;2.8499999046325684
1531048859891;-;-;0.3065625;1.2358302;9.867481;0.0088317115;-0.015908197;0.020581225;-15.750001;34.2;-39.300003;20.873861;-7.845818;0.49580106;1020.649;-;-;51.52525994;-0.13354957;2.8499999046325684
1531048859901;-;-;0.2778223;1.3268409;9.939331;0.004038022;-0.02123452;0.020048592;-14.400001;36.300003;-38.4;20.853275;-7.854082;0.51466155;1020.649;-;-;51.52525994;-0.13354957;2.8499999046325684
1531048859911;-;-;0.32572266;1.3651612;9.867481;-0.0034188295;-0.016973462;0.02430965;-14.400001;36.300003;-38.4;20.853275;-7.854082;0.51466155;1020.649;-;-;51.52525994;-0.13354957;2.8499999046325684
1531048859922;-;-;0.34488282;1.346001;9.857901;-0.0076798867;-0.026028208;0.019515961;-15.450001;35.7;-37.2;20.853275;-7.854082;0.51466155;1020.649;-;-;51.52525994;-0.13354957;2.8499999046325684
1531048859932;-;-;0.31135255;1.3220508;9.79084;-0.0076798867;-0.03135453;0.019515961;-15.450001;35.7;-37.2;20.833687;-7.8591046;0.5337328;1020.64484;-;-;51.52525994;-0.13354957;2.8499999046325684
1531048859942;-;-;0.2778223;1.2789404;9.80521;-0.005016726;-0.025495578;0.026972812;-15.6;35.4;-37.050003;20.812191;-7.852892;0.562649;1020.64484;-;-;51.52525994;-0.13354957;2.8499999046325684
1531048859953;-;-;0.36883304;1.2837305;9.83874;0.0056359186;-0.017506093;0.019515961;-15.6;35.4;-37.050003;20.812191;-7.852892;0.562649;1020.64484;-;-;51.52525994;-0.13354957;2.8499999046325684
1531048859963;-;-;0.364043;1.2885206;9.81;0.004038022;-0.0041902885;0.017918063;-17.550001;34.95;-38.100002;20.785816;-7.845456;0.59933746;1020.64484;-;-;51.52525994;-0.13354957;2.8499999046325684
1531048859973;-;-;0.34488282;1.4082716;9.69504;-0.005016726;0.0059297234;0.01738543;-17.550001;34.95;-38.100002;20.785816;-7.845456;0.59933746;1020.64484;-;-;51.52525994;-0.13354957;2.8499999046325684
1531048859983;-;-;0.32093263;1.3891114;9.656719;-0.02046306;-0.005255553;0.012591742;-14.700001;36.0;-38.4;20.764677;-7.846293;0.6086121;1020.64484;-;-;51.52525994;-0.13354957;2.8499999046325684
1531048859993;-;-;0.3065625;1.3891114;9.6758795;-0.031115705;-0.018571358;0.020048592;-14.700001;36.0;-38.4;20.764677;-7.846293;0.6086121;1020.64484;-;-;51.52525994;-0.13354957;2.8499999046325684
1531048860004;-;-;0.37362307;1.2885206;9.833951;-0.034311496;-0.043605074;0.020048592;-14.85;35.100002;-38.7;20.746763;-7.8224325;0.620135;1020.64484;-;-;51.52525994;-0.13354957;2.8499999046325684
1531048860013;-;-;0.34967285;1.331631;9.987232;-0.033246234;-0.03827875;0.02377702;-14.85;35.100002;-38.7;20.746763;-7.8224325;0.620135;1020.64484;-;-;51.52525994;-0.13354957;2.8499999046325684
1531048860025;-;-;0.36883304;1.3220508;9.972861;-0.014071474;-0.04999666;0.021646488;-15.900001;35.850002;-39.45;20.729733;-7.7832103;0.6615241;1020.64484;-;-;51.52525994;-0.13354957;2.8499999046325684
1531048860035;-;-;0.3305127;1.341211;10.188414;0.01788646;-0.040409278;0.00992858;-15.900001;35.850002;-39.45;20.729733;-7.7832103;0.6615241;1020.64484;-;-;51.52525994;-0.13354957;2.8499999046325684
1531048860045;-;-;0.36883304;1.3028907;10.121353;0.029071735;-0.039344016;0.010461213;-17.1;34.65;-39.600002;20.715714;-7.7632794;0.7129148;1020.64484;-;-;51.52525994;-0.13354957;2.8499999046325684
1531048860054;-;-;0.38320315;1.3076807;9.996812;0.056768615;-0.00685345;0.008863316;-17.1;34.65;-39.600002;20.715714;-7.7632794;0.7129148;1020.64484;-;-;51.52525994;-0.13354957;2.8499999046325684
1531048860065;-;-;0.5029541;1.3603711;9.843531;0.045050707;0.014984471;0.004602258;-16.35;34.800003;-38.25;20.709293;-7.7980657;0.7564344;1020.64484;-;-;51.52525994;-0.13354957;2.8499999046325684
1531048860075;-;-;0.45505372;1.2837305;9.627979;0.016821194;0.037355024;-0.0060503865;-16.35;34.800003;-38.25;20.709293;-7.7980657;0.7564344;1020.64484;-;-;51.52525994;-0.13354957;2.8499999046325684
1531048860085;-;-;0.28261232;1.3172607;9.522598;-0.023126222;0.043213982;-0.0060503865;-16.050001;33.9;-38.4;20.706543;-7.851424;0.7504757;1020.64484;-;-;51.52525994;-0.13354957;2.8499999046325684
1531048860096;-;-;0.26345217;1.3891114;9.68067;-0.068399966;0.03149607;-0.0028545929;-16.050001;33.9;-38.4;20.706543;-7.851424;0.7504757;1020.64484;-;-;51.52525994;-0.13354957;2.8499999046325684
1531048860107;-;-;0.24908204;1.3172607;9.968072;-0.082248405;-0.002592392;0.007265419;-15.3;36.45;-39.9;20.705559;-7.838633;0.70811284;1020.64484;-;-;51.52525994;-0.13354957;2.8499999046325684
1531048860117;-;-;0.28261232;1.2454102;10.116563;-0.073193654;-0.039876647;0.012059109;-15.3;36.45;-39.9;20.705559;-7.838633;0.70811284;1020.64484;-;-;51.52525994;-0.13354957;2.8499999046325684
1531048860127;-;-;0.32572266;1.3268409;10.241104;-0.0492252;-0.05479035;0.0077980515;-15.900001;36.45;-38.7;20.701662;-7.748359;0.6965941;1020.6538;-;-;51.52525994;-0.13354957;2.8499999046325684
1531048860137;-;-;0.3065625;1.2454102;10.226734;0.016821194;-0.04307244;0.0035369939;-15.900001;36.45;-38.7;20.701662;-7.748359;0.6965941;1020.6538;-;-;51.52525994;-0.13354957;2.8499999046325684
1531048860147;-;-;0.36883304;1.2645704;10.106983;0.060497038;-0.02869137;0.004602258;-17.1;35.25;-38.100002;20.70125;-7.680076;0.7473846;1020.6538;-;-;51.52525994;-0.13354957;2.8499999046325684
1531048860158;-;-;0.39278322;1.2981006;9.848321;0.079139166;-0.012712405;-0.012441973;-17.1;35.25;-38.100002;20.70125;-7.680076;0.7473846;1020.6538;-;-;51.52525994;-0.13354957;2.8499999046325684
1531048860168;-;-;0.4167334;1.3220508;9.7812605;0.06475809;-0.0015271276;-0.017235663;-15.6;35.4;-38.7;20.70952;-7.7153068;0.7914115;1020.6538;-;-;51.52525994;-0.13354957;2.8499999046325684
1531048860177;-;-;0.3305127;1.3699512;9.690249;0.024810677;0.0037991947;-0.011909341;-15.6;35.4;-38.7;20.70952;-7.7153068;0.7914115;1020.6538;-;-;51.52525994;-0.13354957;2.8499999046325684
1531048860188;-;-;0.3065625;1.2933106;9.580078;-0.018865164;7.076911E-5;3.412005E-4;-14.85;34.800003;-39.0;20.726559;-7.7972274;0.79841554;1020.6538;-;-;51.52525994;-0.13354957;2.8499999046325684
1531048860197;-;-;0.29698244;1.3124708;9.608819;-0.036442026;0.009125517;-0.0017893284;-14.85;34.800003;-39.0;20.726559;-7.7972274;0.79841554;1020.6538;-;-;51.52525994;-0.13354957;2.8499999046325684
1531048860207;-;-;0.33530274;1.2837305;9.604029;-0.062008373;-4.6186312E-4;0.009395948;-17.1;36.0;-37.2;20.737127;-7.8085637;0.79191166;1020.6538;-;-;51.52525994;-0.13354957;2.8499999046325684
1531048860217;-;-;0.2778223;1.2981006;9.83874;-0.061475743;-0.0063208174;0.0035369939;-17.1;36.0;-37.2;20.737127;-7.8085637;0.79191166;1020.6538;-;-;51.52525994;-0.13354957;2.8499999046325684
1531048860228;-;-;0.23950197;1.2933106;9.968072;-0.053486258;-0.018571358;0.008330684;-16.5;34.95;-40.5;20.735231;-7.755301;0.78559315;1020.65546;-;-;51.52525994;-0.13354957;2.8499999046325684
1531048860238;-;-;0.27303225;1.3028907;10.197993;-0.043366246;-0.031887166;0.0040696263;-16.5;34.95;-40.5;20.735231;-7.755301;0.78559315;1020.65546;-;-;51.52525994;-0.13354957;2.8499999046325684
1531048860248;-;-;0.35925296;1.3124708;10.154883;-0.016734635;-0.034017693;0.011526477;-15.3;35.100002;-39.0;20.730722;-7.685402;0.8025914;1020.65546;-;-;51.52525994;-0.13354957;2.8499999046325684
1531048860258;-;-;0.31135255;1.2597803;10.068663;0.012560137;-0.030289266;0.006732787;-15.3;35.100002;-39.0;20.730722;-7.685402;0.8025914;1020.65546;-;-;51.52525994;-0.13354957;2.8499999046325684
1531048860269;-;-;0.28740236;1.22146;9.891431;0.021082252;-0.009516611;0.008863316;-16.95;36.45;-38.25;20.725193;-7.651795;0.83985376;1020.65546;-;-;51.52525994;-0.13354957;2.8499999046325684
1531048860278;-;-;0.31135255;1.3268409;9.843531;0.025875943;-9.944953E-4;0.0062001552;-16.95;36.45;-38.25;20.725193;-7.651795;0.83985376;1020.65546;-;-;51.52525994;-0.13354957;2.8499999046325684
1531048860289;-;-;0.34009278;1.2693604;9.910591;0.012560137;-0.015375566;0.0040696263;-14.55;35.100002;-38.7;20.7204;-7.665152;0.8664487;1020.65546;-;-;51.52525994;-0.13354957;2.8499999046325684
1531048860298;-;-;0.33530274;1.1927198;9.867481;0.02534331;-0.007918715;0.009395948;-14.55;35.100002;-38.7;20.7204;-7.665152;0.8664487;1020.65546;-;-;51.52525994;-0.13354957;2.8499999046325684
1531048860308;-;-;0.29698244;1.3172607;9.987232;0.037060782;-0.005791135;-2.0321785E-4;-14.85;35.850002;-39.45;20.714064;-7.687832;0.87952626;1020.65546;-;-;51.52525994;-0.13354957;2.8499999046325684
1531048860318;-;-;0.39278322;1.2358302;9.891431;0.051974483;0.0027309805;0.0029925755;-14.85;35.850002;-39.45;20.714064;-7.687832;0.87952626;1020.65546;-;-;51.52525994;-0.13354957;2.8499999046325684
1531048860329;-;-;0.40715334;1.3124708;9.867481;0.045050267;0.009122567;3.2941438E-4;-14.700001;34.2;-40.95;20.707958;-7.7220006;0.88880295;1020.66156;-;-;51.52525994;-0.13354957;2.8499999046325684
1531048860339;-;-;0.34488282;1.2981006;9.881851;0.04824606;-0.013780618;8.620466E-4;-14.700001;34.2;-40.95;20.707958;-7.7220006;0.88880295;1020.66156;-;-;51.52525994;-0.13354957;2.8499999046325684
1531048860350;-;-;0.2778223;1.2406201;9.833951;0.03652815;-0.02816169;0.0099167945;-15.3;34.050003;-38.25;20.704226;-7.779627;0.8870018;1020.66156;-;-;51.52525994;-0.13354957;2.8499999046325684
1531048860359;-;-;0.28261232;1.2885206;9.896221;0.040256575;-0.022302734;0.004590472;-15.3;34.050003;-38.25;20.704226;-7.779627;0.8870018;1020.66156;-;-;51.52525994;-0.13354957;2.8499999046325684
1531048860369;-;-;0.38320315;1.2933106;9.944121;0.038126048;-0.01644378;0.016308382;-15.150001;37.350002;-37.2;20.699436;-7.829077;0.9053685;1020.66156;-;-;51.52525994;-0.13354957;2.8499999046325684
1531048860380;-;-;0.34488282;1.3076807;9.896221;0.037593413;-0.03348801;0.0056557367;-15.900001;35.100002;-38.7;20.686443;-7.8702855;0.9333309;1020.66156;-;-;51.52525994;-0.13354957;2.8499999046325684
1531048860390;-;-;0.43110353;1.3268409;9.7812605;0.035462886;-0.031890117;0.021634702;-15.900001;35.100002;-38.7;20.686443;-7.8702855;0.9333309;1020.66156;-;-;51.52525994;-0.13354957;2.8499999046325684
1531048860400;-;-;0.42152345;1.2837305;9.671089;0.017886024;-0.034553275;0.013112587;-16.5;34.95;-39.300003;20.686443;-7.8702855;0.9333309;1020.66156;-;-;51.52525994;-0.13354957;2.8499999046325684
1531048860411;-;-;0.4167334;1.2885206;9.584868;-0.019398233;-0.01644378;0.023232602;-16.5;34.95;-39.300003;20.670689;-7.915252;0.9670223;1020.66156;-;-;51.52525994;-0.13354957;2.8499999046325684
1531048860421;-;-;0.47900394;1.2933106;9.632769;-0.02578982;-0.0148458835;0.019504175;-17.25;35.850002;-39.45;20.648767;-7.922791;1.0013355;1020.66156;-;-;51.52525994;-0.13354957;2.8499999046325684
1531048860431;-;-;0.43589357;1.341211;9.575289;-0.0833141;-0.0047258707;0.022699967;-17.25;35.850002;-39.45;20.648767;-7.922791;1.0013355;1020.65936;-;-;51.52525994;-0.13354957;2.8499999046325684
1531048860457;-;-;0.37362307;1.2645704;9.972861;-0.09503201;-0.005258503;0.020036805;-17.7;36.45;-40.2;20.623398;-7.869474;1.0166554;1020.65936;-;-;51.52525994;-0.13354957;2.8499999046325684
1531048860455;-;-;0.37362307;1.2645704;9.972861;-0.09503201;-0.005258503;0.020036805;-17.7;36.45;-40.2;20.623398;-7.869474;1.0166554;1020.65936;-;-;51.52525994;-0.13354957;2.8499999046325684
1531048860462;-;-;0.42152345;1.22625;10.001602;-0.07905304;-0.014313251;0.009384162;-16.95;36.9;-38.25;20.597727;-7.7661347;1.0156115;1020.65936;-;-;51.52526812;-0.13364551;2.2799999713897705
1531048860474;-;-;0.3065625;1.1927198;9.920172;-0.057747755;-0.034553275;0.019504175;-16.95;36.9;-38.25;20.597727;-7.7661347;1.0156115;1020.65936;-;-;51.52526812;-0.13364551;2.2799999713897705
1531048860483;-;-;0.5029541;1.1687696;9.872271;-0.05401933;-0.016976412;0.012579956;-16.800001;36.600002;-39.300003;20.58526;-7.672639;1.044122;1020.65936;-;-;51.52526812;-0.13364551;2.2799999713897705
1531048860493;-;-;0.39278322;1.2645704;9.953702;-0.03271404;-0.0025953418;0.004590472;-16.800001;36.600002;-39.300003;20.58526;-7.672639;1.044122;1020.65936;-;-;51.52526812;-0.13364551;2.2799999713897705
1531048860503;-;-;0.32572266;1.2645704;9.814791;-0.026322452;0.018177316;-2.0321785E-4;-18.900002;37.65;-39.300003;20.567719;-7.6169734;1.0703608;1020.65936;-;-;51.52526812;-0.13364551;2.2799999713897705
1531048860514;-;-;0.38320315;1.2406201;9.7812605;-0.045497213;0.035754178;0.0099167945;-18.900002;37.65;-39.300003;20.567719;-7.6169734;1.0703608;1020.65936;-;-;51.52526812;-0.13364551;2.2799999713897705
1531048860524;-;-;0.3305127;1.2693604;9.718989;-0.059878282;0.039482605;0.006721001;-17.7;37.800003;-39.9;20.55714;-7.5815396;1.0506936;1020.6585;-;-;51.52526812;-0.13364551;2.2799999713897705
1531048860534;-;-;0.43110353;1.2789404;9.690249;-0.10515202;0.042678397;0.00405784;-17.7;37.800003;-39.9;20.55714;-7.5815396;1.0506936;1020.6585;-;-;51.52526812;-0.13364551;2.2799999713897705
1531048860545;-;-;0.43110353;1.22146;9.85311;-0.12592468;0.025101535;0.010449427;-18.0;35.100002;-37.050003;20.53613;-7.5128345;1.0043267;1020.6585;-;-;51.52526812;-0.13364551;2.2799999713897705
1531048860555;-;-;0.364043;1.2454102;10.116563;-0.117935196;0.010187832;0.021634702;-18.0;35.100002;-37.050003;20.53613;-7.5128345;1.0043267;1020.6585;-;-;51.52526812;-0.13364551;2.2799999713897705
1531048860565;-;-;0.4263135;1.21188;10.193204;-0.09130358;0.005926774;0.019504175;-16.800001;36.600002;-38.850002;20.516787;-7.3780355;0.9733063;1020.6585;-;-;51.52526812;-0.13364551;2.2799999713897705
1531048860575;-;-;0.43589357;1.2454102;10.188414;-0.068933025;0.009122567;0.013112587;-16.800001;36.600002;-38.850002;20.516787;-7.3780355;0.9733063;1020.6585;-;-;51.52526812;-0.13364551;2.2799999713897705
1531048860585;-;-;0.42152345;1.1975098;10.2315235;-0.046562478;0.021373108;0.010449427;-15.900001;37.5;-38.25;20.493563;-7.2522955;0.9808891;1020.6585;-;-;51.52526812;-0.13364551;2.2799999713897705
1531048860596;-;-;0.4023633;1.1831397;10.068663;-0.018332968;0.025634166;0.00405784;-15.900001;37.5;-38.25;20.493563;-7.2522955;0.9808891;1020.6585;-;-;51.52526812;-0.13364551;2.2799999713897705
1531048860605;-;-;0.45505372;1.2358302;10.015972;0.0035049526;0.020840477;0.0061883694;-17.550001;36.300003;-38.850002;20.477226;-7.1908183;0.95844615;1020.6585;-;-;51.52526812;-0.13364551;2.2799999713897705
1531048860615;-;-;0.4263135;1.2310401;9.924961;0.009363907;0.013916258;0.004590472;-17.550001;36.300003;-38.850002;20.477226;-7.1908183;0.95844615;1020.6585;-;-;51.52526812;-0.13364551;2.2799999713897705
1531048860625;-;-;0.44547364;1.2645704;9.905801;0.015222861;-0.0068563996;0.0029925755;-18.0;36.9;-38.7;20.465794;-7.1873393;0.9360734;1020.6645;-;-;51.52526812;-0.13364551;2.2799999713897705
1531048860636;-;-;0.37362307;1.1735597;9.82437;0.0019070558;6.7819376E-5;-0.0039316434;-18.0;36.9;-38.7;20.465794;-7.1873393;0.9360734;1020.6645;-;-;51.52526812;-0.13364551;2.2799999713897705
1531048860646;-;-;0.35925296;1.2454102;9.82437;-0.01140875;-0.007921664;-0.008192701;-20.25;38.4;-38.100002;20.469917;-7.2003083;0.9322163;1020.6645;-;-;51.52526812;-0.13364551;2.2799999713897705
1531048860656;-;-;0.3784131;1.2789404;9.80521;-0.014604543;0.0016657161;-0.007660069;-20.25;38.4;-38.100002;20.469917;-7.2003083;0.9322163;1020.6645;-;-;51.52526812;-0.13364551;2.2799999713897705
1531048860666;-;-;0.3879932;1.2502003;9.924961;-0.010876118;0.008589935;-0.007127437;-16.35;36.15;-39.45;20.477623;-7.197909;0.9311414;1020.6645;-;-;51.52526812;-0.13364551;2.2799999713897705
1531048860676;-;-;0.42152345;1.22146;9.977652;-0.009810853;0.003796245;-0.007127437;-16.35;36.15;-39.45;20.477623;-7.197909;0.9311414;1020.6645;-;-;51.52526812;-0.13364551;2.2799999713897705
1531048860686;-;-;0.364043;1.1735597;9.910591;-0.0034192663;-0.0015300773;-0.0023337468;-18.300001;37.2;-38.7;20.485264;-7.182327;0.92368805;1020.6645;-;-;51.52526812;-0.13364551;2.2799999713897705
1531048860697;-;-;0.37362307;1.0777588;9.924961;0.0019070558;0.011785729;-0.01032323;-18.300001;37.2;-38.7;20.485264;-7.182327;0.92368805;1020.6645;-;-;51.52526812;-0.13364551;2.2799999713897705
1531048860707;-;-;0.39757326;1.2166699;9.857901;0.0019070558;0.012318361;-0.008725334;-15.900001;36.45;-36.600002;20.492481;-7.1739464;0.9153479;1020.6645;-;-;51.52526812;-0.13364551;2.2799999713897705
1531048860717;-;-;0.39757326;1.1543995;9.872271;-0.0018213697;0.009122567;-0.0065948046;-15.900001;36.45;-36.600002;20.492481;-7.1739464;0.9153479;1020.6645;-;-;51.52526812;-0.13364551;2.2799999713897705
1531048860727;-;-;0.37362307;1.1879297;9.929751;-0.010876118;0.013916258;-0.018312715;-14.85;37.2;-38.25;20.502344;-7.1708455;0.9031342;1020.6661;-;-;51.52526812;-0.13364551;2.2799999713897705
1531048860745;-;-;0.3784131;1.1975098;9.915381;-0.013006647;0.0048615094;-0.012453759;-15.3;36.9;-37.800003;20.515827;-7.1674423;0.88672817;1020.6661;-;-;51.52526812;-0.13364551;2.2799999713897705
1531048860750;-;-;0.42152345;1.1735597;9.896221;-0.012474014;0.005926774;-0.011921127;-15.3;36.9;-37.800003;20.515827;-7.1674423;0.88672817;1020.6661;-;-;51.52526812;-0.13364551;2.2799999713897705
1531048860761;-;-;0.4263135;1.1448194;9.939331;-0.011941382;0.005926774;-0.012453759;-15.750001;36.600002;-39.600002;20.529274;-7.1519904;0.8788559;1020.6661;-;-;51.52526812;-0.13364551;2.2799999713897705
1531048860771;-;-;0.4167334;1.1352394;10.011182;0.010961804;6.7819376E-5;-0.018845346;-15.750001;36.600002;-39.600002;20.529274;-7.1519904;0.8788559;1020.6661;-;-;51.52526812;-0.13364551;2.2799999713897705
1531048860781;-;-;0.32572266;1.1831397;9.905801;0.015222861;0.008057303;-0.0247043;-16.650002;36.9;-37.800003;20.54643;-7.1493125;0.8716602;1020.6661;-;-;51.52526812;-0.13364551;2.2799999713897705
1531048860791;-;-;0.3305127;1.1304493;9.800421;0.014157597;0.03149312;-0.019910611;-16.650002;36.9;-37.800003;20.54643;-7.1493125;0.8716602;1020.6661;-;-;51.52526812;-0.13364551;2.2799999713897705
1531048860801;-;-;0.33530274;1.1927198;9.79563;0.0061681136;0.030960489;-0.016182184;-15.750001;36.0;-40.050003;20.565813;-7.167735;0.85307944;1020.6661;-;-;51.52526812;-0.13364551;2.2799999713897705
1531048860811;-;-;0.26345217;1.1687696;9.85311;3.0890954E-4;0.020838792;-0.009797333;-15.750001;36.0;-40.050003;20.565813;-7.167735;0.85307944;1020.6661;-;-;51.52526812;-0.13364551;2.2799999713897705
1531048860822;-;-;0.33530274;1.1639795;9.867481;-7.563549E-4;-0.0036622917;-0.012460494;-15.900001;37.5;-37.5;20.578918;-7.170389;0.8240867;1020.6645;-;-;51.52526812;-0.13364551;2.2799999713897705
1531048860832;-;-;0.3305127;1.1639795;9.905801;-0.002886884;-0.017510729;0.001387944;-15.900001;37.5;-37.5;20.578918;-7.170389;0.8240867;1020.6645;-;-;51.52526812;-0.13364551;2.2799999713897705
1531048860842;-;-;0.364043;1.1783496;9.920172;0.008298392;-0.020706523;-0.006068907;-15.150001;36.600002;-38.850002;20.590052;-7.1681857;0.8286892;1020.6645;-;-;51.52526812;-0.13364551;2.2799999713897705
1531048860852;-;-;0.44547364;1.2549903;9.901011;0.018951038;-0.02017389;-0.02098261;-15.150001;36.600002;-38.850002;20.590052;-7.1681857;0.8286892;1020.6645;-;-;51.52526812;-0.13364551;2.2799999713897705
1531048860862;-;-;0.364043;1.1783496;9.891431;0.02907105;-0.016445465;-0.024178402;-14.85;35.850002;-40.2;20.603592;-7.17552;0.8532502;1020.6645;-;-;51.52526812;-0.13364551;2.2799999713897705
1531048860873;-;-;0.43589357;1.22625;9.877061;0.037593164;0.0016640306;-0.02151524;-14.85;35.850002;-40.2;20.603592;-7.17552;0.8532502;1020.6645;-;-;51.52526812;-0.13364551;2.2799999713897705
1531048860883;-;-;0.3544629;1.2310401;9.7812605;0.01948367;0.019773526;-0.031102622;-15.3;37.2;-37.800003;20.627726;-7.209191;0.86449444;1020.6645;-;-;51.52526812;-0.13364551;2.2799999713897705
1531048860893;-;-;0.33530274;1.2741505;9.7142;-7.563549E-4;0.016577734;-0.027374195;-15.3;37.2;-37.800003;20.627726;-7.209191;0.86449444;1020.6645;-;-;51.52526812;-0.13364551;2.2799999713897705
1531048860903;-;-;0.37362307;1.22625;9.862691;-0.009811102;0.011784043;-0.024178402;-15.900001;36.45;-37.050003;20.65285;-7.2346263;0.849622;1020.6645;-;-;51.52526812;-0.13364551;2.2799999713897705
1531048860914;-;-;0.3544629;1.1879297;9.939331;-0.025257437;0.024034584;-0.016721552;-15.900001;36.45;-37.050003;20.65285;-7.2346263;0.849622;1020.65796;-;-;51.52526812;-0.13364551;2.2799999713897705
1531048860925;-;-;0.3544629;1.2310401;9.948912;-0.036442716;0.013381939;-0.012993125;-16.35;37.2;-37.050003;20.671892;-7.2256293;0.8284078;1020.65796;-;-;51.52526812;-0.13364551;2.2799999713897705
1531048860935;-;-;0.3305127;1.2597803;9.924961;-0.03058376;0.00645772;-0.007666804;-16.35;37.2;-37.050003;20.671892;-7.2256293;0.8284078;1020.65796;-;-;51.52526812;-0.13364551;2.2799999713897705
1531048860945;-;-;0.2778223;1.2406201;10.078242;-0.02365954;-0.00792335;3.2267952E-4;-14.400001;36.300003;-38.850002;20.6827;-7.1902924;0.8078866;1020.65796;-;-;51.52526812;-0.13364551;2.2799999713897705
1531048860955;-;-;0.28740236;1.2741505;10.054293;-0.011409;-0.013782304;3.2267952E-4;-14.400001;36.300003;-38.850002;20.6827;-7.1902924;0.8078866;1020.65796;-;-;51.52526812;-0.13364551;2.2799999713897705
1531048860965;-;-;0.3065625;1.2310401;10.092612;-0.0018216193;-0.02709811;0.001387944;-13.950001;35.850002;-39.45;20.68701;-7.1629095;0.80806834;1020.65796;-;-;51.52526812;-0.13364551;2.2799999713897705
1531048860975;-;-;0.32093263;1.1639795;10.121353;0.0120268185;-0.028163375;-0.0012752172;-13.950001;35.850002;-39.45;20.68701;-7.1629095;0.80806834;1020.65796;-;-;51.52526812;-0.13364551;2.2799999713897705
1531048860985;-;-;0.33530274;1.1543995;10.039923;0.023744728;-0.026565477;0.013638485;-16.35;37.5;-39.45;20.690552;-7.1573806;0.8296303;1020.65796;-;-;51.52526812;-0.13364551;2.2799999713897705
1531048860995;-;-;0.37362307;1.2070899;9.982442;0.030136315;-0.008988614;0.008844795;-16.35;37.5;-39.45;20.690552;-7.1573806;0.8296303;1020.65796;-;-;51.52526812;-0.13364551;2.2799999713897705
1531048861006;-;-;0.39278322;1.2406201;9.896221;0.021081567;0.002729295;0.0019205762;-16.95;36.15;-39.45;20.687912;-7.1814456;0.85770714;1020.65796;-;-;51.52526812;-0.13364551;2.2799999713897705
1531048861016;-;-;0.3784131;1.2741505;9.80521;0.00989629;0.013381939;8.5531175E-4;-16.95;36.15;-39.45;20.687912;-7.1814456;0.85770714;1020.66394;-;-;51.52526812;-0.13364551;2.2799999713897705
1531048861026;-;-;0.32093263;1.1831397;9.905801;-0.0039521484;0.0037945595;0.005649002;-16.35;34.800003;-39.45;20.68433;-7.210473;0.8558114;1020.66394;-;-;51.52526812;-0.13364551;2.2799999713897705
1531048861036;-;-;0.3305127;1.2454102;9.833951;-0.0044847806;-0.007390717;0.007246898;-16.35;34.800003;-39.45;20.68433;-7.210473;0.8558114;1020.66394;-;-;51.52526812;-0.13364551;2.2799999713897705
1531048861047;-;-;0.30177248;1.1783496;9.872271;-0.005017413;-0.030293902;0.016301647;-15.450001;37.050003;-39.300003;20.68032;-7.2136717;0.8478303;1020.66394;-;-;51.52526812;-0.13364551;2.2799999713897705
1531048861056;-;-;0.31135255;1.1400293;9.843531;0.0072331284;-0.033489693;0.018964808;-15.450001;37.050003;-39.300003;20.68032;-7.2136717;0.8478303;1020.66394;-;-;51.52526812;-0.13364551;2.2799999713897705
1531048861066;-;-;0.43110353;1.1879297;9.920172;0.010428921;-0.030293902;0.0045837373;-14.700001;35.7;-39.300003;20.670204;-7.2074533;0.872139;1020.66394;-;-;51.52526812;-0.13364551;2.2799999713897705
1531048861077;-;-;0.40715334;1.2310401;9.829161;0.015755245;-0.015912833;0.007246898;-14.700001;35.7;-39.300003;20.670204;-7.2074533;0.872139;1020.66394;-;-;51.52526812;-0.13364551;2.2799999713897705
1531048861087;-;-;0.34488282;1.2166699;9.953702;0.016287876;-0.012184408;0.011507956;-15.150001;36.300003;-39.300003;20.658882;-7.2190323;0.9141019;1020.66394;-;-;51.52526812;-0.13364551;2.2799999713897705
1531048861098;-;-;0.36883304;1.2166699;9.8866415;0.0120268185;-4.664983E-4;0.0077795307;-16.800001;37.050003;-37.65;20.658882;-7.2190323;0.9141019;1020.66394;-;-;51.52526812;-0.13364551;2.2799999713897705
1531048861109;-;-;0.36883304;1.1687696;10.0063925;0.017885774;6.6133915E-5;0.0019205762;-16.800001;37.050003;-37.65;20.64821;-7.233192;0.9342105;1020.66394;-;-;51.52526812;-0.13364551;2.2799999713897705
1531048861119;-;-;0.3879932;1.1783496;9.881851;0.020548934;0.013381939;0.005649002;-16.800001;37.050003;-37.65;20.64821;-7.233192;0.9342105;1020.66394;-;-;51.52526812;-0.13364551;2.2799999713897705
1531048861129;-;-;0.44547364;1.2454102;9.814791;0.010961554;0.0075229853;0.005649002;-15.750001;37.350002;-38.4;20.638607;-7.2500677;0.9396805;1020.66394;-;-;51.52526812;-0.13364551;2.2799999713897705
1531048861140;-;-;0.43110353;1.21188;9.814791;-0.0012889871;0.014979836;0.00991006;-16.650002;36.45;-38.7;20.638607;-7.2500677;0.9396805;1020.66394;-;-;51.52526812;-0.13364551;2.2799999713897705
1531048861149;-;-;0.3161426;1.1783496;9.81958;-0.01673532;0.029360907;0.001387944;-16.650002;36.45;-38.7;20.630823;-7.268366;0.92718524;1020.66394;-;-;51.52526812;-0.13364551;2.2799999713897705
1531048861159;-;-;0.4167334;1.2310401;9.915381;-0.03058376;0.022969319;0.00991006;-15.750001;35.25;-38.4;20.630823;-7.268366;0.92718524;1020.66394;-;-;51.52526812;-0.13364551;2.2799999713897705
1531048861169;-;-;0.34967285;1.2310401;9.968072;-0.01673532;0.008055617;0.0061816345;-15.750001;35.25;-38.4;20.622587;-7.2563057;0.9039978;1020.66394;-;-;51.52526812;-0.13364551;2.2799999713897705
1531048861179;-;-;0.23950197;1.1831397;9.996812;-0.008745839;-0.0068580853;0.0061816345;-18.150002;36.0;-38.100002;20.61329;-7.2234855;0.8968497;1020.66394;-;-;51.52526812;-0.13364551;2.2799999713897705
1531048861190;-;-;0.42152345;1.1448194;10.039923;0.0029720706;-0.002064395;0.0067142663;-18.150002;36.0;-38.100002;20.61329;-7.2234855;0.8968497;1020.66394;-;-;51.52526812;-0.13364551;2.2799999713897705
1531048861200;-;-;0.34488282;1.1687696;9.948912;0.015755245;-0.002064395;0.009377427;-18.150002;36.0;-38.100002;20.61329;-7.2234855;0.8968497;1020.66394;-;-;51.52526812;-0.13364551;2.2799999713897705
1531048861210;-;-;0.38320315;1.1304493;9.934542;0.024277361;-0.005792821;3.2267952E-4;-16.650002;36.15;-40.2;20.60651;-7.217971;0.9042314;1020.66394;-;-;51.52526812;-0.13364551;2.2799999713897705
1531048861220;-;-;0.38320315;1.2454102;9.996812;0.03226684;0.0032619273;0.010975324;-16.5;36.600002;-39.600002;20.60651;-7.217971;0.9042314;1020.65906;-;-;51.52526812;-0.13364551;2.2799999713897705
1531048861230;-;-;0.38320315;1.1112891;9.881851;0.032799475;0.0053924564;3.2267952E-4;-16.5;36.600002;-39.600002;20.60243;-7.2374697;0.9109441;1020.65906;-;-;51.52526812;-0.13364551;2.2799999713897705
1531048861242;-;-;0.3879932;1.2022998;9.74294;0.03439737;-0.005792821;0.0045837373;-15.900001;37.2;-37.050003;20.597664;-7.2708087;0.9037275;1020.65906;-;-;51.52526812;-0.13364551;2.2799999713897705
1531048861251;-;-;0.39278322;1.1879297;9.766891;0.028538419;-0.005260188;-2.099527E-4;-15.900001;37.2;-37.050003;20.597664;-7.2708087;0.9037275;1020.65906;-;-;51.52526812;-0.13364551;2.2799999713897705
1531048861261;-;-;0.43110353;1.1975098;9.74773;0.01948367;-0.020706523;0.0024532084;-15.900001;37.2;-37.050003;20.597664;-7.2708087;0.9037275;1020.65906;-;-;51.52526812;-0.13364551;2.2799999713897705
1531048861271;-;-;0.46942386;1.1927198;9.718989;-0.009278471;-0.02017389;0.0024532084;-15.450001;36.0;-40.050003;20.593498;-7.309762;0.90663177;1020.65906;-;-;51.52526812;-0.13364551;2.2799999713897705
1531048861281;-;-;0.41194338;1.1783496;9.7142;-0.029518494;-0.0143149365;0.0019205762;-14.85;37.5;-39.0;20.591011;-7.318327;0.9320212;1020.65906;-;-;51.52526812;-0.13364551;2.2799999713897705
1531048861293;-;-;0.34488282;1.1783496;9.920172;-0.040703773;-0.0015317628;-0.0018078494;-14.85;37.5;-39.0;20.591011;-7.318327;0.9320212;1020.65906;-;-;51.52526812;-0.13364551;2.2799999713897705
1531048861302;-;-;0.4023633;1.1496094;9.920172;-0.039105877;-0.002064395;0.008844795;-16.35;37.5;-40.2;20.589016;-7.286706;0.9437238;1020.65906;-;-;51.52526812;-0.13364551;2.2799999713897705
1531048861312;-;-;0.44547364;1.1591895;9.929751;-0.030051315;-0.0025982913;-7.476362E-4;-16.35;37.5;-40.2;20.589016;-7.286706;0.9437238;1020.6614;-;-;51.52526812;-0.13364551;2.2799999713897705
1531048861322;-;-;0.5029541;1.2166699;9.934542;-0.032714475;-0.011120407;0.0040460536;-16.35;37.5;-40.2;20.589016;-7.286706;0.9437238;1020.6614;-;-;51.52526812;-0.13364551;2.2799999713897705
1531048861333;-;-;0.4263135;1.2022998;10.001602;0.0051024123;0.00965225;-0.0071392227;-15.900001;36.9;-39.45;20.58451;-7.2432847;0.9520249;1020.6614;-;-;51.52526812;-0.13364551;2.2799999713897705
1531048861343;-;-;0.34009278;1.22146;9.901011;0.017352954;0.0011301342;-0.011932913;-16.050001;37.050003;-39.300003;20.587114;-7.224197;0.94367385;1020.6614;-;-;51.52526812;-0.13364551;2.2799999713897705
1531048861353;-;-;0.364043;1.22146;9.82437;0.013624528;0.006456456;-0.0055413265;-16.050001;37.050003;-39.300003;20.587114;-7.224197;0.94367385;1020.6614;-;-;51.52526812;-0.13364551;2.2799999713897705
1531048861363;-;-;0.34488282;1.1879297;9.74294;0.0013739867;0.0021953988;-0.0071392227;-16.5;38.100002;-38.850002;20.597588;-7.2416916;0.9322071;1020.6614;-;-;51.52526812;-0.13364551;2.2799999713897705
1531048861374;-;-;0.40715334;1.2406201;9.800421;-0.016735509;-0.0031309235;-0.0034107973;-16.5;38.100002;-38.850002;20.597588;-7.2416916;0.9322071;1020.6614;-;-;51.52526812;-0.13364551;2.2799999713897705
1531048861385;-;-;0.40715334;1.2406201;9.800421;-0.016735509;-0.0031309235;-0.0034107973;-16.5;34.95;-38.4;20.597588;-7.2416916;0.9322071;1020.6614;-;-;51.52526812;-0.13364551;2.2799999713897705
1531048861395;-;-;0.3544629;1.2022998;9.958491;-0.02685552;0.00485856;-0.0034107973;-16.5;34.95;-38.4;20.604275;-7.2457733;0.93071383;1020.6614;-;-;51.52526812;-0.13364551;2.2799999713897705
1531048861405;-;-;0.35925296;1.1783496;9.910591;-0.020463934;-0.010587775;-0.0060739582;-16.050001;37.350002;-38.850002;20.60922;-7.2213416;0.93485284;1020.6614;-;-;51.52526812;-0.13364551;2.2799999713897705
1531048861415;-;-;0.3784131;1.1831397;9.829161;-0.016735509;-0.004196188;-7.476362E-4;-16.050001;37.350002;-38.850002;20.60922;-7.2213416;0.93485284;1020.6614;-;-;51.52526812;-0.13364551;2.2799999713897705
1531048861425;-;-;0.4023633;1.1927198;9.972861;-0.0039523356;0.0075217215;-0.00873712;-13.950001;36.9;-37.5;20.612701;-7.195745;0.937933;1020.66724;-;-;51.52526812;-0.13364551;2.2799999713897705
1531048861435;-;-;0.35925296;1.21188;9.85311;-0.002887071;5.97502E-4;-0.017259235;-13.950001;36.9;-37.5;20.612701;-7.195745;0.937933;1020.66724;-;-;51.52526812;-0.13364551;2.2799999713897705
1531048861446;-;-;0.32093263;1.2358302;9.8866415;-0.00981129;-0.0025982913;-0.0055413265;-13.950001;36.15;-38.25;20.619062;-7.183722;0.93440187;1020.66724;-;-;51.52526812;-0.13364551;2.2799999713897705
1531048861467;-;-;0.43589357;1.2310401;9.85311;-0.015670244;-0.011653039;-0.006606591;-15.3;36.45;-39.45;20.63081;-7.182601;0.9309406;1020.66724;-;-;51.52526812;-0.13364551;2.2799999713897705
1531048861467;-;-;0.43589357;1.2310401;9.85311;-0.015670244;-0.011653039;-0.006606591;-15.3;36.45;-39.45;20.63081;-7.182601;0.9309406;1020.66724;-;-;51.52526812;-0.13364551;2.2799999713897705
1531048861476;-;-;0.34009278;1.1879297;9.992022;-0.020463934;5.97502E-4;-0.0055413265;-15.3;36.45;-39.45;20.63081;-7.182601;0.9309406;1020.66724;-;-;51.52526812;-0.13364551;2.2799999713897705
1531048861487;-;-;0.32572266;1.2741505;9.987232;-0.031116579;0.012848043;-0.006606591;-15.750001;35.7;-39.600002;20.641376;-7.171514;0.93720865;1020.66724;-;-;51.52526812;-0.13364551;2.2799999713897705
1531048861497;-;-;0.3161426;1.21188;9.953702;-0.03164921;0.016043836;-0.004476062;-17.1;37.350002;-38.4;20.641376;-7.171514;0.93720865;1020.66724;-;-;51.52526812;-0.13364551;2.2799999713897705
1531048861507;-;-;0.2778223;1.1591895;9.939331;-0.023127096;0.022435423;0.005643951;-17.1;37.350002;-38.4;20.647491;-7.1412673;0.9282849;1020.66724;-;-;51.52526812;-0.13364551;2.2799999713897705
1531048861518;-;-;0.29698244;1.1879297;9.968072;-0.0215292;0.00965225;0.005643951;-17.1;37.350002;-38.4;20.647491;-7.1412673;0.9282849;1020.66724;-;-;51.52526812;-0.13364551;2.2799999713897705
1531048861528;-;-;0.21555176;1.1687696;10.044712;-0.0215292;-0.027099375;0.005643951;-16.35;38.550003;-37.5;20.646807;-7.110605;0.9040904;1020.66833;-;-;51.52526812;-0.13364551;2.2799999713897705
1531048861538;-;-;0.2921924;1.1879297;10.020762;-0.014072347;-0.029762536;0.001915525;-16.800001;37.65;-38.850002;20.646807;-7.110605;0.9040904;1020.66833;-;-;51.52526812;-0.13364551;2.2799999713897705
1531048861548;-;-;0.37362307;1.22146;10.116563;0.015755057;-0.029762536;0.007241847;-16.800001;37.65;-38.850002;20.641884;-7.085135;0.91003716;1020.66833;-;-;51.52526812;-0.13364551;2.2799999713897705
1531048861558;-;-;0.42152345;1.2310401;10.097403;0.021614011;-0.03562149;-0.0076718554;-14.85;37.5;-40.2;20.640137;-7.0887794;0.95145136;1020.66833;-;-;51.52526812;-0.13364551;2.2799999713897705
1531048861569;-;-;0.38320315;1.22625;9.977652;0.049310885;-0.0057940846;0.005111318;-14.85;37.5;-40.2;20.640137;-7.0887794;0.95145136;1020.66833;-;-;51.52526812;-0.13364551;2.2799999713897705
1531048861579;-;-;0.39278322;1.2022998;9.82437;0.04771299;0.0075217215;-0.0076718554;-17.1;38.100002;-39.300003;20.639854;-7.1341567;0.9723067;1020.66833;-;-;51.52526812;-0.13364551;2.2799999713897705
1531048861589;-;-;0.34488282;1.2166699;9.7142;0.026407702;0.035751227;-0.0071392227;-17.1;38.100002;-39.300003;20.639854;-7.1341567;0.9723067;1020.66833;-;-;51.52526812;-0.13364551;2.2799999713897705
1531048861599;-;-;0.35925296;1.2166699;9.604029;0.0114939995;0.042675447;-0.002878165;-17.7;36.9;-40.2;20.645893;-7.178612;0.9538844;1020.66833;-;-;51.52526812;-0.13364551;2.2799999713897705
1531048861609;-;-;0.39278322;1.2406201;9.637559;-0.03377974;0.03841439;-0.0012802684;-17.7;36.9;-40.2;20.645893;-7.178612;0.9538844;1020.66833;-;-;51.52526812;-0.13364551;2.2799999713897705
1531048861620;-;-;0.33530274;1.1975098;9.733359;-0.05082397;0.030424904;-0.0012802684;-17.1;37.350002;-40.050003;20.64709;-7.164605;0.9102842;1020.66516;-;-;51.52526812;-0.13364551;2.2799999713897705
1531048861629;-;-;0.32093263;1.22625;9.80521;-0.065205045;0.016576469;-0.002878165;-17.1;37.350002;-40.050003;20.64709;-7.164605;0.9102842;1020.66516;-;-;51.52526812;-0.13364551;2.2799999713897705
1531048861639;-;-;0.31135255;1.2406201;9.968072;-0.056150295;0.0011301342;0.001915525;-15.750001;37.050003;-38.850002;20.64163;-7.1175785;0.8874773;1020.66516;-;-;51.52526812;-0.13364551;2.2799999713897705
1531048861649;-;-;0.34009278;1.1831397;10.197993;-0.016202876;-0.002065659;0.005643951;-15.750001;37.050003;-38.850002;20.641855;-7.098907;0.88283706;1020.66516;-;-;51.52526812;-0.13364551;2.2799999713897705
1531048861661;-;-;0.34009278;1.1687696;10.250684;0.007232941;-0.00952251;0.0120355375;-16.050001;37.050003;-38.100002;20.636057;-7.0555444;0.8783578;1020.66516;-;-;51.52526812;-0.13364551;2.2799999713897705
1531048861670;-;-;0.32093263;1.1256592;10.178833;0.0429193;-0.011653039;-0.0076718554;-16.050001;37.050003;-38.100002;20.636057;-7.0555444;0.8783578;1020.66516;-;-;51.52526812;-0.13364551;2.2799999713897705
1531048861681;-;-;0.4023633;1.096919;10.092612;0.057833;0.0037932955;-0.006606591;-14.1;36.600002;-38.100002;20.637196;-7.070654;0.8960209;1020.66516;-;-;51.52526812;-0.13364551;2.2799999713897705
1531048861691;-;-;0.36883304;1.1496094;9.901011;0.0594309;0.023500687;-0.014596074;-14.1;36.600002;-38.100002;20.637196;-7.070654;0.8960209;1020.66516;-;-;51.52526812;-0.13364551;2.2799999713897705
1531048861701;-;-;0.32093263;1.0729688;9.7812605;0.04771299;0.035218596;-0.0076718554;-16.050001;37.050003;-38.100002;20.64451;-7.138402;0.8838419;1020.66516;-;-;51.52526812;-0.13364551;2.2799999713897705
1531048861711;-;-;0.3784131;1.1783496;9.671089;0.01682032;0.03149017;-0.0060739582;-16.050001;37.050003;-38.100002;20.64451;-7.138402;0.8838419;1020.66583;-;-;51.52526812;-0.13364551;2.2799999713897705
1531048861721;-;-;0.3065625;1.1735597;9.642349;0.0035045156;0.014445939;-2.1500397E-4;-15.3;37.5;-40.65;20.648079;-7.1836615;0.8471155;1020.66583;-;-;51.52526812;-0.13364551;2.2799999713897705
1531048861732;-;-;0.3879932;1.1735597;9.671089;-0.020996567;0.020837527;0.005643951;-15.3;37.5;-40.65;20.648079;-7.1836615;0.8471155;1020.66583;-;-;51.52526812;-0.13364551;2.2799999713897705
1531048861742;-;-;0.31135255;1.1735597;9.848321;-0.027920786;0.016576469;-7.476362E-4;-16.050001;36.300003;-36.45;20.650103;-7.181128;0.8243789;1020.66583;-;-;51.52526812;-0.13364551;2.2799999713897705
1531048861752;-;-;0.364043;1.1543995;9.857901;-0.025257625;0.006456456;0.001915525;-16.050001;36.300003;-36.45;20.650103;-7.181128;0.8243789;1020.66583;-;-;51.52526812;-0.13364551;2.2799999713897705
1531048861762;-;-;0.2778223;1.1591895;10.025552;-0.0119418185;0.013380676;-0.0076718554;-14.400001;36.0;-38.100002;20.64857;-7.1485105;0.81273043;1020.66583;-;-;51.52526812;-0.13364551;2.2799999713897705
1531048861773;-;-;0.34967285;1.1735597;9.8866415;0.015755057;0.027229112;-0.010867648;-14.400001;36.0;-38.100002;20.64857;-7.1485105;0.81273043;1020.66583;-;-;51.52526812;-0.13364551;2.2799999713897705
1531048861783;-;-;0.3305127;1.2022998;9.82437;0.024809804;0.029892273;-0.010867648;-14.55;37.2;-38.7;20.652555;-7.133325;0.8078939;1020.66583;-;-;51.52526812;-0.13364551;2.2799999713897705
1531048861793;-;-;0.3305127;1.22146;9.85311;0.024277173;0.026163848;-0.012465545;-14.55;37.2;-38.7;20.652555;-7.133325;0.8078939;1020.66583;-;-;51.52526812;-0.13364551;2.2799999713897705
1531048861803;-;-;0.36883304;1.2885206;9.74773;0.017885586;0.022968054;-0.009802384;-16.5;36.300003;-39.600002;20.661299;-7.1558704;0.7799016;1020.66583;-;-;51.52526812;-0.13364551;2.2799999713897705
1531048861813;-;-;0.31135255;1.2310401;9.79563;-0.008213206;0.015512468;-0.008199437;-16.5;36.300003;-39.600002;20.661299;-7.1558704;0.7799016;1020.6652;-;-;51.52526812;-0.13364551;2.2799999713897705
1531048861824;-;-;0.38320315;1.1927198;9.814791;-0.024724804;-0.00792335;0.0019205762;-15.900001;35.850002;-38.7;20.670992;-7.1743484;0.755729;1020.6652;-;-;51.52526812;-0.13364551;2.2799999713897705
1531048861835;-;-;0.33530274;1.22146;9.891431;-0.03537745;-0.005260188;0.0024532084;-15.900001;35.850002;-38.7;20.670992;-7.1743484;0.755729;1020.6652;-;-;51.52526812;-0.13364551;2.2799999713897705
1531048861845;-;-;0.41194338;1.2454102;9.996812;-0.034312185;0.008055617;-0.0044710105;-15.3;36.45;-38.25;20.673632;-7.1494946;0.75448734;1020.6652;-;-;51.52526812;-0.13364551;2.2799999713897705
