TimeStamp[ms];Prox[Cm];Lux[lux];AccX[m/s^2];AccY[m/s^2];AccZ[m/s^2];GyroX[rad/s];GyroY[rad/s];GyroZ[rad/s];MagnX[uT];MagnY[uT];MagnZ[uT];OrienYaw[degrees];OrienPitch[degrees];OrienRoll[degrees];Press[Pa];Temp[C°];Batt[%];Lat;Lng;Speed[m/s]
1530986099553;-;-;-0.93405765;0.74724615;9.623189;-0.04373016;0.18600856;0.03338465;14.700001;64.200005;-37.65;348.12143;-3.5650349;-2.9860487;1017.64667;-;-;51.52443367;-0.13367646;0.8299999833106995
1530986099554;-;-;-0.93405765;0.74724615;9.623189;-0.04373016;0.18600856;0.03338465;14.700001;64.200005;-37.65;348.12143;-3.5650349;-2.9860487;1017.64667;-;-;51.52443367;-0.13367646;0.8299999833106995
1530986099568;-;-;-0.8143067;0.5460645;10.011182;0.013261491;0.1588443;0.044037297;12.3;62.4;-36.45;348.14133;-3.517013;-3.0128171;1017.64667;-;-;51.52443367;-0.13367646;0.8299999833106995
1530986099568;-;-;-0.7232959;0.5843848;10.001602;0.02231624;0.14765903;0.04776572;12.3;62.4;-36.45;348.14133;-3.517013;-3.0128171;1017.64667;-;-;51.52443367;-0.13367646;0.8299999833106995
1530986099576;-;-;-0.71371585;0.5604346;9.992022;0.020718342;0.13807166;0.03338465;12.3;62.4;-36.45;348.14133;-3.517013;-3.0128171;1017.64667;-;-;51.52443367;-0.13367646;0.8299999833106995
1530986099587;-;-;-0.6658155;0.56522465;9.896221;0.027642561;0.110374786;0.012611995;13.950001;64.65;-37.050003;348.12888;-3.4520562;-3.1826527;1017.64667;-;-;51.52443367;-0.13367646;0.8299999833106995
1530986099597;-;-;-0.6993457;0.6658155;9.896221;0.007935169;0.091200024;0.0024919827;13.950001;64.65;-37.050003;348.12888;-3.4520562;-3.1826527;1017.62506;-;-;51.52443367;-0.13367646;0.8299999833106995
1530986099607;-;-;-0.7568262;0.62749517;10.068663;-0.0016522111;0.063503146;0.00675304;14.250001;64.350006;-37.050003;348.0649;-3.454517;-3.366577;1017.62506;-;-;51.52443367;-0.13367646;0.8299999833106995
1530986099617;-;-;-0.8095166;0.6849756;10.121353;-0.0021848432;0.037404165;3.6145386E-4;14.85;63.9;-38.25;348.04706;-3.4727228;-3.438851;1017.62506;-;-;51.52443367;-0.13367646;0.8299999833106995
1530986099627;-;-;-0.8095166;0.7185059;10.044712;-0.004315372;0.020892568;0.02060148;14.85;63.9;-38.25;348.03613;-3.483338;-3.4960303;1017.62506;-;-;51.52443367;-0.13367646;0.8299999833106995
1530986099637;-;-;-0.7664063;0.76161623;9.934542;-0.011772223;0.032610476;0.02060148;15.750001;64.200005;-36.75;348.02634;-3.4803915;-3.5700197;1017.62506;-;-;51.52443367;-0.13367646;0.8299999833106995
1530986099647;-;-;-0.63707525;0.68018556;9.910591;-0.0048480043;0.06403578;0.038178343;15.750001;64.200005;-36.75;348.02634;-3.4803915;-3.5700197;1017.62506;-;-;51.52443367;-0.13367646;0.8299999833106995
1530986099658;-;-;-0.57001466;0.6514453;9.977652;-5.4314354E-5;0.07894948;0.036580447;13.650001;63.45;-36.75;348.00665;-3.4719179;-3.595256;1017.62506;-;-;51.52443367;-0.13367646;0.8299999833106995
1530986099668;-;-;-0.50774413;0.56522465;10.083033;-0.0011195788;0.09546108;0.026460433;13.650001;63.45;-36.75;348.00665;-3.4719179;-3.595256;1017.62506;-;-;51.52443367;-0.13367646;0.8299999833106995
1530986099678;-;-;-0.5508545;0.57001466;10.073453;0.007935169;0.09865688;0.023797272;14.700001;63.750004;-37.2;347.96127;-3.4675848;-3.660086;1017.62506;-;-;51.52443367;-0.13367646;0.8299999833106995
1530986099688;-;-;-0.60833496;0.6179151;10.135723;-0.0027174754;0.0858737;0.020068847;14.700001;63.750004;-37.2;347.96127;-3.4675848;-3.660086;1017.62506;-;-;51.52443367;-0.13367646;0.8299999833106995
1530986099699;-;-;-0.6179151;0.60833496;10.274634;0.0058046402;0.077351585;0.02539517;15.6;63.000004;-38.25;347.92203;-3.4725614;-3.7647057;1017.62177;-;-;51.52443367;-0.13367646;0.8299999833106995
1530986099708;-;-;-0.47900394;0.488584;10.356065;0.01059833;0.061372615;0.021666743;15.6;63.000004;-38.25;347.92203;-3.4725614;-3.7647057;1017.62177;-;-;51.52443367;-0.13367646;0.8299999833106995
1530986099718;-;-;-0.5939649;0.45505372;10.437495;0.02710993;0.048056807;0.017405685;17.1;62.100002;-38.4;347.8902;-3.4781892;-3.8588662;1017.62177;-;-;51.52443367;-0.13367646;0.8299999833106995
1530986099729;-;-;-0.5604346;0.45984375;10.303374;0.04468679;0.016098877;0.0019593504;17.1;62.100002;-38.4;347.8902;-3.4781892;-3.8588662;1017.62177;-;-;51.52443367;-0.13367646;0.8299999833106995
1530986099739;-;-;-0.5460645;0.45505372;10.380015;0.050013114;-0.01692432;-0.013486983;15.6;62.250004;-37.050003;347.8585;-3.4857862;-3.9259942;1017.62177;-;-;51.52443367;-0.13367646;0.8299999833106995
1530986099749;-;-;-0.62749517;0.5508545;10.063872;0.05107838;-0.065926485;-0.038520698;15.6;62.250004;-37.050003;347.8585;-3.4857862;-3.9259942;1017.62177;-;-;51.52443367;-0.13367646;0.8299999833106995
1530986099759;-;-;-0.6849756;0.5843848;9.905801;0.040425733;-0.074981235;-0.04384702;14.55;64.65;-39.0;347.8474;-3.5311058;-3.959165;1017.62177;-;-;51.52443367;-0.13367646;0.8299999833106995
1530986099769;-;-;-0.64186525;0.5843848;9.68067;0.024446769;-0.07657913;-0.01508488;14.55;64.65;-39.0;347.8474;-3.5311058;-3.959165;1017.62177;-;-;51.52443367;-0.13367646;0.8299999833106995
1530986099780;-;-;-0.6514453;0.5987549;9.604029;0.018587815;-0.0760465;-0.0129543515;16.050001;62.7;-37.2;347.88095;-3.5842412;-3.900008;1017.62177;-;-;51.52443367;-0.13367646;0.8299999833106995
1530986099789;-;-;-0.613125;0.5987549;9.489068;0.0068699047;-0.039294876;0.0040898793;16.050001;62.7;-37.2;347.88095;-3.5842412;-3.900008;1017.62177;-;-;51.52443367;-0.13367646;0.8299999833106995
1530986099799;-;-;-0.5748047;0.57001466;9.594449;0.0042067436;-0.013728528;0.0030246149;15.900001;63.000004;-37.800003;347.914;-3.6138039;-3.810859;1017.61053;-;-;51.52443367;-0.13367646;0.8299999833106995
1530986099809;-;-;-0.64186525;0.5987549;9.575289;-0.0037827399;0.018762039;0.012079364;15.900001;63.000004;-37.800003;347.914;-3.6138039;-3.810859;1017.61053;-;-;51.52443367;-0.13367646;0.8299999833106995
1530986099819;-;-;-0.64186525;0.51732427;9.64714;-0.010706959;0.037404165;0.010481467;14.85;63.600002;-38.25;347.92233;-3.6260533;-3.7536643;1017.61053;-;-;51.52443367;-0.13367646;0.8299999833106995
1530986099829;-;-;-0.7664063;0.46463382;9.800421;-0.013902752;0.04113259;0.014742523;14.85;63.600002;-38.25;347.92233;-3.6260533;-3.7536643;1017.61053;-;-;51.52443367;-0.13367646;0.8299999833106995
1530986099840;-;-;-0.76161623;0.5556446;9.896221;-0.010174327;0.04592628;0.013144627;15.750001;63.45;-38.100002;347.91632;-3.6266246;-3.765863;1017.61053;-;-;51.52443367;-0.13367646;0.8299999833106995
1530986099850;-;-;-0.8286768;0.53169435;10.130933;4.7831787E-4;0.05071997;0.014742523;15.750001;63.45;-38.100002;347.91632;-3.6266246;-3.765863;1017.61053;-;-;51.52443367;-0.13367646;0.8299999833106995
1530986099860;-;-;-0.8143067;0.46942386;10.217154;0.007935169;0.040067326;0.026460433;15.150001;62.100002;-37.65;347.90326;-3.614116;-3.8147216;1017.61053;-;-;51.52443367;-0.13367646;0.8299999833106995
1530986099870;-;-;-0.847837;0.4981641;10.054293;0.021783607;-0.0036085157;0.015807789;15.150001;62.100002;-37.65;347.90326;-3.614116;-3.8147216;1017.61053;-;-;51.52443367;-0.13367646;0.8299999833106995
1530986099880;-;-;-0.8430469;0.45505372;10.035132;0.0068699047;-0.017456952;0.021666743;14.250001;63.600002;-37.5;347.88562;-3.6044426;-3.8693945;1017.61053;-;-;51.52443367;-0.13367646;0.8299999833106995
1530986099890;-;-;-0.8765772;0.5029541;9.920172;-0.011772223;-0.024381172;0.019536214;14.250001;63.600002;-37.5;347.88562;-3.6044426;-3.8693945;1017.61163;-;-;51.52443367;-0.13367646;0.8299999833106995
1530986099900;-;-;-0.90052736;0.488584;9.896221;-0.020826971;-0.033435922;0.02805833;14.250001;63.600002;-39.0;347.8589;-3.6251142;-3.887671;1017.61163;-;-;51.52443367;-0.13367646;0.8299999833106995
1530986099911;-;-;-0.852627;0.52690434;9.920172;-0.030414352;-0.03556645;0.038178343;14.250001;63.600002;-39.0;347.8589;-3.6251142;-3.887671;1017.61163;-;-;51.52443367;-0.13367646;0.8299999833106995
1530986099921;-;-;-0.8382569;0.45984375;9.872271;-0.027218558;-0.033435922;0.04030887;14.250001;63.000004;-36.600002;347.83636;-3.6266177;-3.8615403;1017.61163;-;-;51.52443367;-0.13367646;0.8299999833106995
1530986099931;-;-;-0.847837;0.4263135;9.75731;-0.033077516;-0.03556645;0.044037297;14.250001;63.000004;-36.600002;347.83636;-3.6266177;-3.8615403;1017.61163;-;-;51.52443367;-0.13367646;0.8299999833106995
1530986099941;-;-;-0.8143067;0.3784131;9.73815;-0.03680594;-0.018522218;0.04776572;14.85;61.95;-35.4;347.7974;-3.6006603;-3.8223896;1017.61163;-;-;51.52443367;-0.13367646;0.8299999833106995
1530986099951;-;-;-0.82388675;0.4263135;9.613608;-0.04905648;0.0033157032;0.060016263;14.85;61.95;-35.4;347.7974;-3.6006603;-3.8223896;1017.61163;-;-;51.52443367;-0.13367646;0.8299999833106995
1530986099962;-;-;-0.6658155;0.44547364;9.594449;-0.057578597;-4.127224E-4;0.060016263;15.6;64.350006;-37.050003;347.75043;-3.567776;-3.783403;1017.61163;-;-;51.52443367;-0.13367646;0.8299999833106995
1530986099972;-;-;-0.6993457;0.40715334;9.74294;-0.07568809;0.0033157032;0.05362468;15.6;64.350006;-37.050003;347.75043;-3.567776;-3.783403;1017.61163;-;-;51.52443367;-0.13367646;0.8299999833106995
1530986099982;-;-;-0.62749517;0.48379397;9.75252;-0.080481775;0.01929467;0.04670046;15.750001;62.7;-36.0;347.69196;-3.525467;-3.7676384;1017.61163;-;-;51.52443367;-0.13367646;0.8299999833106995
1530986099992;-;-;-0.6610254;0.4023633;9.82437;-0.091667056;0.01450098;0.02805833;15.750001;62.7;-36.0;347.69196;-3.525467;-3.7676384;1017.6133;-;-;51.52443367;-0.13367646;0.8299999833106995
1530986100002;-;-;-0.5460645;0.4167334;9.75252;-0.09486285;0.030479947;0.009948835;14.85;63.300003;-36.15;347.63004;-3.4539614;-3.7654536;1017.6133;-;-;51.52443367;-0.13367646;0.8299999833106995
1530986100012;-;-;-0.46942386;0.4406836;9.862691;-0.09965654;0.046991546;0.003557247;14.85;63.300003;-36.15;347.63004;-3.4539614;-3.7654536;1017.6133;-;-;51.52443367;-0.13367646;0.8299999833106995
1530986100023;-;-;-0.488584;0.4742139;10.015972;-0.09379759;0.054981027;-0.015617512;14.55;63.300003;-37.5;347.58267;-3.3609633;-3.780022;1017.6133;-;-;51.52443367;-0.13367646;0.8299999833106995
1530986100033;-;-;-0.5125342;0.5029541;10.015972;-0.07568809;0.06297051;-0.034792274;14.55;63.300003;-37.5;347.58267;-3.3609633;-3.780022;1017.6133;-;-;51.52443367;-0.13367646;0.8299999833106995
1530986100043;-;-;-0.49337405;0.488584;9.972861;-0.07781862;0.069362104;-0.04331439;15.3;63.9;-37.050003;347.56342;-3.253793;-3.8192768;1017.6133;-;-;51.52443367;-0.13367646;0.8299999833106995
1530986100053;-;-;-0.5029541;0.51732427;10.020762;-0.065568075;0.077351585;-0.054499667;15.3;63.9;-37.050003;347.56342;-3.253793;-3.8192768;1017.6133;-;-;51.52443367;-0.13367646;0.8299999833106995
1530986100064;-;-;-0.56522465;0.5843848;10.015972;-0.054915436;0.07894948;-0.074739695;15.900001;63.000004;-39.45;347.58014;-3.1499116;-3.884601;1017.6133;-;-;51.52443367;-0.13367646;0.8299999833106995
1530986100073;-;-;-0.62749517;0.6993457;10.068663;-0.051719643;0.057111558;-0.07793549;15.900001;63.000004;-39.45;347.58014;-3.1499116;-3.884601;1017.6133;-;-;51.52443367;-0.13367646;0.8299999833106995
1530986100083;-;-;-0.7089258;0.7424561;10.121353;-0.04000173;0.051785234;-0.08219654;13.05;65.850006;-37.2;347.6278;-3.0669134;-3.9691324;1017.6133;-;-;51.52443367;-0.13367646;0.8299999833106995
1530986100093;-;-;-0.7041358;0.7568262;10.049502;-0.030414352;0.03847589;-0.05502558;13.05;65.850006;-37.2;347.6278;-3.0669134;-3.9691324;1017.6137;-;-;51.52443367;-0.13367646;0.8299999833106995
1530986100103;-;-;-0.7664063;0.7232959;9.963282;-0.024022764;0.033149567;-0.040111877;14.85;63.300003;-36.15;347.70557;-2.9954095;-4.0541477;1017.6137;-;-;51.52443367;-0.13367646;0.8299999833106995
1530986100113;-;-;-0.7664063;0.8334668;9.896221;-0.03680594;0.04540011;-0.020937119;14.85;63.300003;-36.15;347.70557;-2.9954095;-4.0541477;1017.6137;-;-;51.52443367;-0.13367646;0.8299999833106995
1530986100123;-;-;-0.7232959;0.7807764;9.901011;-0.044795424;0.056585383;-0.014012899;15.6;64.350006;-39.0;347.78604;-2.9506469;-4.117471;1017.6137;-;-;51.52443367;-0.13367646;0.8299999833106995
1530986100134;-;-;-0.613125;0.728086;9.953702;-0.054915436;0.07096645;-0.008153945;15.6;64.350006;-39.0;347.78604;-2.9506469;-4.117471;1017.6137;-;-;51.52443367;-0.13367646;0.8299999833106995
1530986100144;-;-;-0.67539555;0.6849756;10.083033;-0.04905648;0.06777066;0.0056944927;15.3;62.250004;-37.5;347.832;-2.9146;-4.1654415;1017.6137;-;-;51.52443367;-0.13367646;0.8299999833106995
1530986100154;-;-;-0.6658155;0.6179151;10.250684;-0.052252274;0.057650648;0.015281873;15.3;62.250004;-37.5;347.832;-2.9146;-4.1654415;1017.6137;-;-;51.52443367;-0.13367646;0.8299999833106995
1530986100164;-;-;-0.5987549;0.613125;10.312955;-0.054915436;0.033682197;0.01208608;15.900001;63.9;-37.050003;347.84915;-2.8589213;-4.2341223;1017.6137;-;-;51.52443367;-0.13367646;0.8299999833106995
1530986100174;-;-;-0.5987549;0.6227051;10.336905;-0.044795424;0.0059853215;0.01687977;15.900001;63.9;-37.050003;347.84915;-2.8589213;-4.2341223;1017.6137;-;-;51.52443367;-0.13367646;0.8299999833106995
1530986100185;-;-;-0.6179151;0.5412744;10.332115;-0.04000173;-9.388976E-4;0.020075563;14.85;63.600002;-37.050003;347.84076;-2.7992036;-4.3061523;1017.62177;-;-;51.52443367;-0.13367646;0.8299999833106995
1530986100195;-;-;-0.5987549;0.60354495;10.346485;-0.033610146;-0.028635774;0.023803988;14.85;63.600002;-37.050003;347.84076;-2.7992036;-4.3061523;1017.62177;-;-;51.52443367;-0.13367646;0.8299999833106995
1530986100205;-;-;-0.5987549;0.5843848;10.145303;-0.035740677;-0.056332648;0.036587164;14.400001;63.45;-37.65;347.81824;-2.7407653;-4.3369904;1017.62177;-;-;51.52443367;-0.13367646;0.8299999833106995
1530986100216;-;-;-0.47900394;0.5748047;10.087823;-0.042664893;-0.06751793;0.044044014;16.050001;63.750004;-38.100002;347.78912;-2.6980698;-4.324239;1017.62177;-;-;51.52443367;-0.13367646;0.8299999833106995
1530986100226;-;-;-0.45026368;0.5125342;10.001602;-0.057045963;-0.06325687;0.03605453;16.050001;63.750004;-38.100002;347.78912;-2.6980698;-4.324239;1017.62177;-;-;51.52443367;-0.13367646;0.8299999833106995
1530986100237;-;-;-0.41194338;0.5460645;10.054293;-0.059709124;-0.0472779;0.013683977;14.700001;63.750004;-36.75;347.74878;-2.6587625;-4.2593536;1017.62177;-;-;51.52443367;-0.13367646;0.8299999833106995
1530986100247;-;-;-0.4981641;0.4742139;10.126143;-0.04905648;-0.007330484;0.0030313318;14.700001;63.750004;-36.75;347.74878;-2.6587625;-4.2593536;1017.62177;-;-;51.52443367;-0.13367646;0.8299999833106995
1530986100257;-;-;-0.6322852;0.5460645;10.346485;-0.025620662;0.037943255;-0.02146975;17.25;64.950005;-37.800003;347.74878;-2.6587625;-4.2593536;1017.62177;-;-;51.52443367;-0.13367646;0.8299999833106995
1530986100267;-;-;-0.9532178;0.64186525;10.667418;0.05906786;0.086945415;-0.03105713;17.25;64.950005;-37.800003;347.71185;-2.6019034;-4.187911;1017.62177;-;-;51.52443367;-0.13367646;0.8299999833106995
1530986100277;-;-;-0.9484278;0.6993457;10.566827;0.08729737;0.086945415;-0.024132911;15.900001;63.600002;-37.050003;347.71185;-2.6019034;-4.187911;1017.62177;-;-;51.52443367;-0.13367646;0.8299999833106995
1530986100287;-;-;-1.0585986;0.8430469;10.274634;0.12298373;0.09759806;-0.009751841;15.900001;63.600002;-37.050003;347.71487;-2.548692;-4.189294;1017.62933;-;-;51.52443367;-0.13367646;0.8299999833106995
1530986100298;-;-;-1.0729688;0.8334668;10.083033;0.10966793;0.098130696;-0.003360255;14.55;63.9;-37.5;347.74197;-2.591978;-4.280058;1017.62933;-;-;51.52443367;-0.13367646;0.8299999833106995
1530986100307;-;-;-1.1975098;0.85741705;9.944121;0.077709995;0.07362961;0.009422919;14.55;63.9;-37.5;347.74197;-2.591978;-4.280058;1017.62933;-;-;51.52443367;-0.13367646;0.8299999833106995
1530986100317;-;-;-1.1639795;0.8861573;10.030342;0.058002595;0.06883592;0.023803988;15.3;64.350006;-36.600002;347.74197;-2.591978;-4.280058;1017.62933;-;-;51.52443367;-0.13367646;0.8299999833106995
1530986100328;-;-;-1.1975098;0.9148975;9.972861;0.0249794;0.04113905;0.041913483;15.3;64.350006;-36.600002;347.74817;-2.7195737;-4.3931203;1017.62933;-;-;51.52443367;-0.13367646;0.8299999833106995
1530986100338;-;-;-1.1400293;0.9436377;9.948912;0.018587815;0.035812728;0.06801246;15.3;63.000004;-38.25;347.74817;-2.7195737;-4.3931203;1017.62933;-;-;51.52443367;-0.13367646;0.8299999833106995
1530986100348;-;-;-1.0202783;0.97237796;9.79563;0.013261491;0.047530636;0.098372504;15.3;63.000004;-38.25;347.7324;-2.8094518;-4.477636;1017.62933;-;-;51.52443367;-0.13367646;0.8299999833106995
1530986100358;-;-;-0.9436377;0.96758795;9.79084;0.019653078;0.06670539;0.10369882;14.700001;62.7;-36.75;347.6794;-2.8447013;-4.5235367;1017.62933;-;-;51.52443367;-0.13367646;0.8299999833106995
1530986100368;-;-;-0.89573735;0.9627979;9.74294;0.02977309;0.08747805;0.11381883;14.700001;62.7;-36.75;347.6794;-2.8447013;-4.5235367;1017.62933;-;-;51.52443367;-0.13367646;0.8299999833106995
1530986100378;-;-;-0.79035646;0.9627979;9.814791;0.032968882;0.096000165;0.126602;15.3;63.300003;-36.600002;347.6794;-2.8447013;-4.5235367;1017.62933;-;-;51.52443367;-0.13367646;0.8299999833106995
1530986100388;-;-;-0.71371585;0.9053174;9.70941;0.036164675;0.07309698;0.1431136;15.3;63.300003;-36.600002;347.57162;-2.8731294;-4.572438;1017.62665;-;-;51.52443367;-0.13367646;0.8299999833106995
1530986100399;-;-;-0.5508545;0.9196875;9.618399;0.03669731;0.067238025;0.1447115;16.35;63.000004;-38.25;347.57162;-2.8731294;-4.572438;1017.62665;-;-;51.52443367;-0.13367646;0.8299999833106995
1530986100408;-;-;-0.488584;0.8909473;9.618399;0.018587815;0.03954115;0.15429887;16.35;63.000004;-38.25;347.4308;-2.9182274;-4.665381;1017.62665;-;-;51.52443367;-0.13367646;0.8299999833106995
1530986100418;-;-;-0.47900394;0.8143067;9.699829;0.012196227;0.025160082;0.14417887;16.5;63.15;-38.100002;347.26404;-2.9803216;-4.7523465;1017.62665;-;-;51.52443367;-0.13367646;0.8299999833106995
1530986100428;-;-;-0.4263135;0.81909674;9.81958;0.01752255;0.0118442755;0.13885254;16.5;63.15;-38.100002;347.26404;-2.9803216;-4.7523465;1017.62665;-;-;51.52443367;-0.13367646;0.8299999833106995
1530986100438;-;-;-0.31135255;0.90052736;9.656719;0.031903617;-0.002004162;0.121275686;16.95;62.550003;-37.050003;347.26404;-2.9803216;-4.7523465;1017.62665;-;-;51.52443367;-0.13367646;0.8299999833106995
1530986100448;-;-;-0.364043;0.9484278;9.623189;0.055339437;-0.004134691;0.121275686;16.95;62.550003;-37.050003;347.08765;-3.0163786;-4.7930865;1017.62665;-;-;51.52443367;-0.13367646;0.8299999833106995
1530986100459;-;-;-0.3305127;0.8430469;9.546548;0.060665756;0.015040068;0.1148841;16.35;63.000004;-37.050003;346.93195;-3.050668;-4.7952127;1017.62665;-;-;51.52443367;-0.13367646;0.8299999833106995
1530986100469;-;-;-0.5125342;0.8813672;9.627979;0.07824262;0.048063267;0.09464408;16.35;63.000004;-37.050003;346.93195;-3.050668;-4.7952127;1017.62665;-;-;51.52443367;-0.13367646;0.8299999833106995
1530986100479;-;-;-0.57001466;0.74724615;9.623189;0.075579464;0.062976964;0.10476409;15.900001;63.300003;-37.5;346.7966;-3.1200325;-4.790094;1017.62665;-;-;51.52443367;-0.13367646;0.8299999833106995
1530986100489;-;-;-0.75203615;0.8286768;9.766891;0.0713184;0.07362961;0.10210092;15.900001;63.300003;-37.5;346.7966;-3.1200325;-4.790094;1017.62506;-;-;51.52443367;-0.13367646;0.8299999833106995
1530986100499;-;-;-0.85741705;0.8143067;9.862691;0.06439418;0.05232433;0.11594936;15.900001;63.300003;-37.5;346.7966;-3.1200325;-4.790094;1017.62506;-;-;51.52443367;-0.13367646;0.8299999833106995
1530986100509;-;-;-0.98195803;0.74724615;10.049502;0.032436248;-0.009461014;0.12340622;17.7;64.350006;-37.050003;346.67627;-3.2142565;-4.8268886;1017.62506;-;-;51.52443367;-0.13367646;0.8299999833106995
1530986100520;-;-;-0.9580079;0.63707525;10.097403;0.019653078;-0.041951578;0.13405885;16.5;63.45;-37.2;346.56018;-3.3083847;-4.898284;1017.62506;-;-;51.52443367;-0.13367646;0.8299999833106995
1530986100530;-;-;-0.8861573;0.5460645;10.317744;-0.0016522111;-0.085094795;0.12287358;16.5;63.45;-37.2;346.56018;-3.3083847;-4.898284;1017.62506;-;-;51.52443367;-0.13367646;0.8299999833106995
1530986100540;-;-;-0.98195803;0.5221143;10.370435;0.004739376;-0.08935585;0.11861253;16.35;64.350006;-37.050003;346.4164;-3.372233;-4.9056015;1017.62506;-;-;51.52443367;-0.13367646;0.8299999833106995
1530986100550;-;-;-0.8861573;0.47900394;10.427916;0.025512032;-0.09148638;0.10742725;16.35;64.350006;-37.050003;346.4164;-3.372233;-4.9056015;1017.62506;-;-;51.52443367;-0.13367646;0.8299999833106995
1530986100560;-;-;-0.8861573;0.48379397;10.380015;0.034034148;-0.09042112;0.11168831;16.95;63.300003;-37.5;346.4164;-3.372233;-4.9056015;1017.62506;-;-;51.52443367;-0.13367646;0.8299999833106995
1530986100571;-;-;-0.7424561;0.488584;10.298584;0.07344893;-0.10746535;0.09890513;16.95;63.300003;-37.5;346.26886;-3.3969796;-4.8259096;1017.62506;-;-;51.52443367;-0.13367646;0.8299999833106995
1530986100581;-;-;-0.7185059;0.53169435;10.178833;0.08090579;-0.13835801;0.08985039;16.800001;63.750004;-37.2;346.14566;-3.4283924;-4.7171464;1017.62506;-;-;51.52443367;-0.13367646;0.8299999833106995
1530986100590;-;-;-0.6849756;0.56522465;10.078242;0.08037315;-0.14688012;0.09357881;16.800001;63.750004;-37.2;346.14566;-3.4283924;-4.7171464;1017.62177;-;-;51.52443367;-0.13367646;0.8299999833106995
1530986100600;-;-;-0.43589357;0.47900394;9.901011;0.055339437;-0.21772021;0.05522929;16.5;63.750004;-38.4;346.0321;-3.5112007;-4.604007;1017.62177;-;-;51.52443367;-0.13367646;0.8299999833106995
1530986100610;-;-;-0.36883304;0.48379397;9.6758795;0.058002595;-0.21985073;0.021140829;16.5;63.750004;-38.4;346.0321;-3.5112007;-4.604007;1017.62177;-;-;51.52443367;-0.13367646;0.8299999833106995
1530986100620;-;-;-0.3784131;0.5125342;9.671089;0.05427417;-0.22517706;0.016347138;16.35;63.9;-37.800003;346.0321;-3.5112007;-4.604007;1017.62177;-;-;51.52443367;-0.13367646;0.8299999833106995
1530986100631;-;-;-0.45026368;0.60833496;9.522598;0.04468679;-0.17351173;-0.027861338;16.35;63.9;-37.800003;345.9412;-3.6087914;-4.4220805;1017.62177;-;-;51.52443367;-0.13367646;0.8299999833106995
1530986100641;-;-;-0.57001466;0.7807764;9.522598;0.042556264;-0.13303168;-0.042242408;15.3;62.250004;-37.800003;345.91516;-3.6780207;-4.1677933;1017.62177;-;-;51.52443367;-0.13367646;0.8299999833106995
1530986100651;-;-;-0.64186525;0.86220706;9.7142;0.047349952;-0.08722532;-0.04064451;15.3;62.250004;-37.800003;345.91516;-3.6780207;-4.1677933;1017.62177;-;-;51.52443367;-0.13367646;0.8299999833106995
1530986100661;-;-;-0.7185059;0.9196875;9.85311;0.059600495;-0.05153896;-0.053960316;14.700001;63.45;-38.100002;345.94617;-3.7300746;-3.944544;1017.62177;-;-;51.52443367;-0.13367646;0.8299999833106995
1530986100671;-;-;-0.82388675;0.91010743;10.049502;0.070785776;-0.019581025;-0.03798135;14.700001;63.45;-38.100002;345.94617;-3.7300746;-3.944544;1017.62177;-;-;51.52443367;-0.13367646;0.8299999833106995
1530986100681;-;-;-0.81909674;0.9963282;10.068663;0.07025314;-0.021711554;-0.019871853;16.35;63.600002;-37.5;346.00266;-3.78573;-3.8376362;1017.62177;-;-;51.52443367;-0.13367646;0.8299999833106995
1530986100691;-;-;-0.7951465;0.93405765;10.140513;0.07291631;-0.032364197;-0.024132911;16.35;63.600002;-37.5;346.00266;-3.78573;-3.8376362;1017.61694;-;-;51.52443367;-0.13367646;0.8299999833106995
1530986100702;-;-;-0.7568262;0.8861573;10.0063925;0.055872068;-0.104802184;-0.008153945;14.700001;63.15;-37.65;346.0471;-3.8638263;-3.8149636;1017.61694;-;-;51.52443367;-0.13367646;0.8299999833106995
1530986100712;-;-;-0.7376661;0.9532178;9.848321;0.028707827;-0.14208643;-0.012415003;14.700001;63.15;-37.65;346.0471;-3.8638263;-3.8149636;1017.61694;-;-;51.52443367;-0.13367646;0.8299999833106995
1530986100722;-;-;-0.7089258;0.92926764;9.6758795;0.0058046402;-0.15433697;-0.028926602;15.750001;63.15;-37.65;346.06808;-3.9440904;-3.7667215;1017.61694;-;-;51.52443367;-0.13367646;0.8299999833106995
1530986100732;-;-;-0.7568262;0.97237796;9.570498;-0.010174327;-0.14581487;-0.031589765;15.750001;63.15;-37.65;346.06808;-3.9440904;-3.7667215;1017.61694;-;-;51.52443367;-0.13367646;0.8299999833106995
1530986100742;-;-;-0.8430469;0.9148975;9.479487;-0.0229575;-0.11811799;-0.03531819;15.900001;62.550003;-37.5;346.093;-3.9890518;-3.6234975;1017.61694;-;-;51.52443367;-0.13367646;0.8299999833106995
1530986100752;-;-;-0.89573735;1.092129;9.489068;-0.027218558;-0.08988848;-0.034252923;15.900001;62.550003;-37.5;346.093;-3.9890518;-3.6234975;1017.61694;-;-;51.52443367;-0.13367646;0.8299999833106995
1530986100763;-;-;-0.8813672;1.1496094;9.642349;-0.029349087;-0.060593706;-0.029459234;15.450001;62.7;-36.45;346.13495;-3.9863367;-3.4514341;1017.61694;-;-;51.52443367;-0.13367646;0.8299999833106995
1530986100772;-;-;-0.8861573;1.1735597;9.594449;-0.03680594;-0.047810532;-0.031589765;15.450001;62.7;-36.45;346.13495;-3.9863367;-3.4514341;1017.61694;-;-;51.52443367;-0.13367646;0.8299999833106995
1530986100782;-;-;-0.9053174;1.1687696;9.580078;-0.054915436;-0.058463175;-0.02626344;17.7;61.2;-38.25;346.18292;-3.955235;-3.330422;1017.61914;-;-;51.52443367;-0.13367646;0.8299999833106995
1530986100792;-;-;-1.0106983;1.1975098;9.527389;-0.07941651;-0.051006325;-0.024665544;17.7;61.2;-38.25;346.18292;-3.955235;-3.330422;1017.61914;-;-;51.52443367;-0.13367646;0.8299999833106995
1530986100802;-;-;-0.98195803;1.2789404;9.522598;-0.10977655;-0.03502736;-0.01667606;14.700001;63.15;-38.100002;346.22125;-3.9169228;-3.2637916;1017.61914;-;-;51.52443367;-0.13367646;0.8299999833106995
1530986100812;-;-;-1.0442286;1.2454102;9.436378;-0.12948395;-0.021178922;-0.0038928872;14.700001;63.15;-38.100002;346.22125;-3.9169228;-3.2637916;1017.61914;-;-;51.52443367;-0.13367646;0.8299999833106995
1530986100823;-;-;-1.0681788;1.2885206;9.565708;-0.15451767;0.020366391;-0.0054907836;15.6;63.300003;-37.800003;346.2511;-3.8429058;-3.2073956;1017.61914;-;-;51.52443367;-0.13367646;0.8299999833106995
1530986100833;-;-;-1.0154883;1.3507911;9.901011;-0.15824609;0.05338959;-0.018273957;15.6;63.300003;-37.800003;346.2511;-3.8429058;-3.2073956;1017.61914;-;-;51.52443367;-0.13367646;0.8299999833106995
1530986100843;-;-;-1.1400293;1.3747413;9.977652;-0.14066923;0.058715913;0.0056944927;15.450001;62.7;-37.2;346.26602;-3.7152612;-3.1791368;1017.61914;-;-;51.52443367;-0.13367646;0.8299999833106995
1530986100853;-;-;-1.096919;1.3268409;10.087823;-0.11989656;0.05232433;0.018477667;15.450001;62.7;-37.2;346.26602;-3.7152612;-3.1791368;1017.61914;-;-;51.52443367;-0.13367646;0.8299999833106995
1530986100863;-;-;-1.1496094;1.2454102;10.025552;-0.103384964;0.037410624;0.0355219;14.85;64.350006;-38.25;346.2726;-3.5465164;-3.219517;1017.61914;-;-;51.52443367;-0.13367646;0.8299999833106995
1530986100873;-;-;-1.101709;1.2837305;9.972861;-0.1023197;0.016105333;0.032326106;14.85;64.350006;-38.25;346.2726;-3.5465164;-3.219517;1017.61914;-;-;51.52443367;-0.13367646;0.8299999833106995
1530986100884;-;-;-0.8861573;1.2645704;9.992022;-0.12575552;-0.032364197;0.02646715;15.750001;63.750004;-38.100002;346.26233;-3.3943863;-3.2902043;1017.62177;-;-;51.52443367;-0.13367646;0.8299999833106995
1530986100894;-;-;-0.8095166;1.3076807;10.102193;-0.12575552;-0.041951578;0.020608196;16.35;63.300003;-37.800003;346.22574;-3.2794642;-3.3271918;1017.62177;-;-;51.52443367;-0.13367646;0.8299999833106995
1530986100904;-;-;-0.8430469;1.2645704;10.217154;-0.11084182;-0.08562742;-6.970938E-4;16.35;63.300003;-37.800003;346.22574;-3.2794642;-3.3271918;1017.62177;-;-;51.52443367;-0.13367646;0.8299999833106995
1530986100914;-;-;-0.7089258;1.2406201;10.193204;-0.07409019;-0.09255164;-0.017208692;14.400001;62.100002;-37.65;346.22574;-3.2794642;-3.3271918;1017.62177;-;-;51.52443367;-0.13367646;0.8299999833106995
1530986100924;-;-;-0.7376661;1.2310401;10.092612;-0.0229575;-0.11652009;-0.03585082;14.400001;62.100002;-37.65;346.20044;-3.1406937;-3.290887;1017.62177;-;-;51.52443367;-0.13367646;0.8299999833106995
1530986100935;-;-;-0.82388675;1.341211;9.924961;-0.009641694;-0.10853061;-0.05023189;16.35;63.9;-37.800003;346.20724;-3.0302052;-3.1942487;1017.62177;-;-;51.52443367;-0.13367646;0.8299999833106995
1530986100945;-;-;-0.728086;1.3986914;9.69504;0.0063372725;-0.102139026;-0.065678224;16.35;63.9;-37.800003;346.20724;-3.0302052;-3.1942487;1017.62177;-;-;51.52443367;-0.13367646;0.8299999833106995
1530986100955;-;-;-0.8047266;1.4034815;9.493857;0.009000434;-0.0803011;-0.07206981;16.5;63.750004;-36.75;346.25568;-2.9965277;-3.0710502;1017.62177;-;-;51.52443367;-0.13367646;0.8299999833106995
1530986100965;-;-;-0.9484278;1.3651612;9.5561285;-0.009641694;-0.05260422;-0.07100455;16.5;63.750004;-36.75;346.25568;-2.9965277;-3.0710502;1017.62177;-;-;51.52443367;-0.13367646;0.8299999833106995
1530986100975;-;-;-0.91010743;1.4849122;9.584868;-0.0123048555;-0.029701037;-0.07633087;15.750001;64.200005;-38.100002;346.3338;-3.0125148;-2.964354;1017.62177;-;-;51.52443367;-0.13367646;0.8299999833106995
1530986100985;-;-;-0.8382569;1.4705421;9.85311;-0.0053806365;-0.008395749;-0.08325509;15.750001;64.200005;-38.100002;346.3338;-3.0125148;-2.964354;1017.6299;-;-;51.52443367;-0.13367646;0.8299999833106995
1530986100995;-;-;-0.8095166;1.4897022;9.958491;0.018055182;0.004387425;-0.080591924;16.35;62.250004;-38.25;346.42252;-3.0330167;-2.9192064;1017.6299;-;-;51.52443367;-0.13367646;0.8299999833106995
1530986101006;-;-;-0.76161623;1.5136524;9.987232;0.039360467;-0.019048395;-0.096570894;16.35;62.250004;-38.25;346.42252;-3.0330167;-2.9192064;1017.6299;-;-;51.52443367;-0.13367646;0.8299999833106995
1530986101015;-;-;-0.7424561;1.4849122;10.020762;0.046284687;-0.025972612;-0.1098867;16.800001;62.7;-37.2;346.51532;-3.0572283;-2.9211757;1017.6299;-;-;51.52443367;-0.13367646;0.8299999833106995
1530986101025;-;-;-0.75203615;1.5423926;9.867481;0.052676275;-0.039821047;-0.14663833;16.800001;62.7;-37.2;346.51532;-3.0572283;-2.9211757;1017.6299;-;-;51.52443367;-0.13367646;0.8299999833106995
1530986101035;-;-;-0.89573735;1.6190332;9.81958;0.056937333;-0.04461474;-0.1295941;15.750001;62.4;-34.800003;346.63004;-3.0995939;-2.9115455;1017.6299;-;-;51.52443367;-0.13367646;0.8299999833106995
1530986101045;-;-;-0.97237796;1.5950831;9.7812605;0.031903617;-0.0472779;-0.13172463;15.750001;62.4;-34.800003;346.63004;-3.0995939;-2.9115455;1017.6299;-;-;51.52443367;-0.13367646;0.8299999833106995
1530986101056;-;-;-0.97237796;1.6717237;9.982442;0.016989917;-0.040886313;-0.12000671;16.050001;62.7;-36.75;346.78152;-3.1759763;-2.8808568;1017.6299;-;-;51.52443367;-0.13367646;0.8299999833106995
1530986101066;-;-;-0.93405765;1.7292042;10.087823;0.03509941;-0.038755786;-0.12426777;16.050001;62.7;-36.75;346.78152;-3.1759763;-2.8808568;1017.6299;-;-;51.52443367;-0.13367646;0.8299999833106995
1530986101076;-;-;-0.9388477;1.7292042;10.150093;0.038827837;-0.023842083;-0.12906146;13.950001;64.350006;-37.050003;346.9292;-3.2447562;-2.853109;1017.6299;-;-;51.52443367;-0.13367646;0.8299999833106995
1530986101086;-;-;-0.9627979;1.7004639;10.336905;0.060133126;0.0038547926;-0.12160461;13.950001;64.350006;-37.050003;346.9292;-3.2447562;-2.853109;1017.6396;-;-;51.52443367;-0.13367646;0.8299999833106995
1530986101097;-;-;-0.8765772;1.6813037;10.403965;0.08676474;0.013955094;-0.12109248;15.3;62.550003;-36.600002;347.0733;-3.2826617;-2.8266218;1017.6396;-;-;51.52443367;-0.13367646;0.8299999833106995
1530986101108;-;-;-0.92926764;1.5519727;10.471025;0.104341604;0.033129852;-0.12375564;15.3;62.550003;-36.600002;347.0733;-3.2826617;-2.8266218;1017.6396;-;-;51.52443367;-0.13367646;0.8299999833106995
1530986101118;-;-;-0.90052736;1.5471827;10.332115;0.114461616;0.009694036;-0.13227777;14.55;63.000004;-37.5;347.2106;-3.3487837;-2.8307903;1017.6396;-;-;51.52443367;-0.13367646;0.8299999833106995
1530986101128;-;-;-0.847837;1.5136524;10.341695;0.11712478;-9.586085E-4;-0.1445283;14.55;63.000004;-37.5;347.2106;-3.3487837;-2.8307903;1017.6396;-;-;51.52443367;-0.13367646;0.8299999833106995
1530986101138;-;-;-0.89573735;1.4178516;10.293795;0.10008055;-0.004687034;-0.16583359;15.900001;63.300003;-37.800003;347.35242;-3.4575362;-2.8647494;1017.6396;-;-;51.52443367;-0.13367646;0.8299999833106995
1530986101148;-;-;-0.8669971;1.4992822;10.308165;0.08783001;-0.018535472;-0.17435572;15.900001;63.300003;-37.800003;347.35242;-3.4575362;-2.8647494;1017.6396;-;-;51.52443367;-0.13367646;0.8299999833106995
1530986101159;-;-;-0.8382569;1.5711329;10.427916;0.08303632;-0.03185128;-0.18287782;14.55;63.000004;-38.25;347.51703;-3.580309;-2.8778312;1017.6396;-;-;51.52443367;-0.13367646;0.8299999833106995
1530986101169;-;-;-0.9388477;1.6813037;10.566827;0.0894279;-0.040373396;-0.19033468;14.55;63.000004;-38.25;347.51703;-3.580309;-2.8778312;1017.6396;-;-;51.52443367;-0.13367646;0.8299999833106995
1530986101179;-;-;-0.89573735;1.7435743;10.638678;0.11499425;-0.040906027;-0.19033468;14.700001;64.200005;-36.75;347.7124;-3.6774151;-2.8752413;1017.6412;-;-;51.52443367;-0.13367646;0.8299999833106995
1530986101190;-;-;-0.7711963;1.7579445;10.806329;0.15867008;-0.03930813;-0.19459574;14.700001;64.200005;-36.75;347.7124;-3.6774151;-2.8752413;1017.6412;-;-;51.52443367;-0.13367646;0.8299999833106995
1530986101200;-;-;-0.7232959;1.710044;10.619517;0.20500909;-0.05848289;-0.20791154;15.150001;62.7;-38.850002;347.93005;-3.769276;-2.8474958;1017.6412;-;-;51.52443367;-0.13367646;0.8299999833106995
1530986101210;-;-;-0.7711963;1.6573536;10.389595;0.23696703;-0.05795026;-0.21909682;15.150001;62.7;-38.850002;347.93005;-3.769276;-2.8474958;1017.6412;-;-;51.52443367;-0.13367646;0.8299999833106995
1530986101220;-;-;-0.6993457;1.6765138;10.197993;0.23696703;-0.074461855;-0.2388042;15.900001;63.600002;-37.800003;348.1537;-3.9150915;-2.818028;1017.6412;-;-;51.52443367;-0.13367646;0.8299999833106995
1530986101231;-;-;-0.7185059;1.8920655;10.145303;0.2199228;-0.09683241;-0.25797898;15.900001;63.600002;-37.800003;348.1537;-3.9150915;-2.818028;1017.6412;-;-;51.52443367;-0.13367646;0.8299999833106995
1530986101241;-;-;-0.8382569;1.9687061;10.150093;0.2151291;-0.09736504;-0.2665011;15.150001;63.45;-38.100002;348.40714;-4.1496935;-2.7672539;1017.6412;-;-;51.52443367;-0.13367646;0.8299999833106995
1530986101251;-;-;-0.8382569;2.0022364;10.135723;0.22258595;-0.0686029;-0.2654358;15.150001;63.45;-38.100002;348.40714;-4.1496935;-2.7672539;1017.6412;-;-;51.52443367;-0.13367646;0.8299999833106995
1530986101262;-;-;-0.7759864;1.8920655;10.049502;0.23270597;-0.014807046;-0.25797898;14.85;63.000004;-35.850002;348.7021;-4.395191;-2.6904054;1017.6412;-;-;51.52443367;-0.13367646;0.8299999833106995
1530986101272;-;-;-0.7568262;1.8585353;10.039923;0.24442387;0.024607738;-0.26117477;14.85;63.000004;-35.850002;348.7021;-4.395191;-2.6904054;1017.6412;-;-;51.52443367;-0.13367646;0.8299999833106995
1530986101282;-;-;-0.8047266;1.6046631;10.068663;0.2593376;0.10237204;-0.2718274;14.85;63.9;-37.800003;349.01486;-4.6362987;-2.62382;1017.6412;-;-;51.52443367;-0.13367646;0.8299999833106995
1530986101292;-;-;-0.8382569;1.4897022;10.039923;0.27478394;0.14178683;-0.27608848;14.85;63.9;-37.800003;349.01486;-4.6362987;-2.62382;1017.6412;-;-;51.52443367;-0.13367646;0.8299999833106995
1530986101303;-;-;-0.977168;1.5567628;9.977652;0.26200074;0.19345215;-0.26277265;13.500001;61.95;-35.850002;349.3069;-4.895392;-2.648154;1017.6412;-;-;51.52443367;-0.13367646;0.8299999833106995
1530986101313;-;-;-1.0298585;1.4130616;9.867481;0.24282597;0.21688798;-0.2537179;15.450001;63.15;-37.2;349.60266;-5.185572;-2.8113596;1017.6412;-;-;51.52443367;-0.13367646;0.8299999833106995
1530986101323;-;-;-1.1591895;1.1208692;9.920172;0.17358379;0.23339957;-0.22495577;15.450001;63.15;-37.2;349.60266;-5.185572;-2.8113596;1017.6412;-;-;51.52443367;-0.13367646;0.8299999833106995
1530986101334;-;-;-1.3699512;1.0154883;10.063872;0.14109322;0.23339957;-0.22122735;14.55;62.250004;-36.600002;349.87625;-5.4646106;-3.0631082;1017.6412;-;-;51.52443367;-0.13367646;0.8299999833106995
1530986101343;-;-;-1.6094532;0.9244776;10.427916;0.097417384;0.22008377;-0.20791154;14.55;62.250004;-36.600002;349.87625;-5.4646106;-3.0631082;1017.6412;-;-;51.52443367;-0.13367646;0.8299999833106995
1530986101354;-;-;-1.6813037;0.87178713;10.327325;0.07238367;0.1742774;-0.17648624;14.55;61.95;-37.800003;350.1093;-5.6389275;-3.3553832;1017.6412;-;-;51.52443367;-0.13367646;0.8299999833106995
1530986101364;-;-;-1.6238233;0.75203615;10.303374;-5.4314354E-5;0.09384993;-0.10085246;14.55;61.95;-37.800003;350.1093;-5.6389275;-3.3553832;1017.6412;-;-;51.52443367;-0.13367646;0.8299999833106995
1530986101374;-;-;-1.4801221;0.7041358;10.332115;-0.02988172;0.047510922;-0.08380823;14.1;61.800003;-37.65;350.30826;-5.7309046;-3.6041439;1017.6412;-;-;51.52443367;-0.13367646;0.8299999833106995
1530986101384;-;-;-1.1160791;0.50774413;10.494976;-0.072492294;0.034195118;-0.062502936;14.1;61.800003;-37.65;350.30826;-5.7309046;-3.6041439;1017.64014;-;-;51.52443367;-0.13367646;0.8299999833106995
1530986101394;-;-;-0.9244776;0.45505372;10.605147;-0.04586069;0.03685828;-0.06836189;13.950001;62.550003;-36.15;350.41766;-5.7210035;-3.7099495;1017.64014;-;-;51.52443367;-0.13367646;0.8299999833106995
1530986101405;-;-;-0.71371585;0.48379397;10.643467;0.06918788;0.057630934;-0.09073245;13.950001;62.550003;-36.15;350.41766;-5.7210035;-3.7099495;1017.64014;-;-;51.52443367;-0.13367646;0.8299999833106995
1530986101415;-;-;-0.63707525;0.40715334;10.403965;0.14801744;0.10130678;-0.09446087;14.700001;62.100002;-37.65;350.49033;-5.646163;-3.7515385;1017.64014;-;-;51.52443367;-0.13367646;0.8299999833106995
1530986101426;-;-;-0.5364844;0.39757326;10.106983;0.26626182;0.17800583;-0.0949935;14.700001;62.100002;-37.65;350.49033;-5.646163;-3.7515385;1017.64014;-;-;51.52443367;-0.13367646;0.8299999833106995
1530986101435;-;-;-0.39757326;0.34009278;9.848321;0.31792712;0.23233432;-0.11203773;14.85;63.600002;-39.45;350.58426;-5.7218833;-3.8324513;1017.64014;-;-;51.52443367;-0.13367646;0.8299999833106995
1530986101445;-;-;-0.48379397;0.4742139;9.508228;0.36266825;0.34898075;-0.12322301;14.85;63.600002;-39.45;350.58426;-5.7218833;-3.8324513;1017.64014;-;-;51.52443367;-0.13367646;0.8299999833106995
1530986101456;-;-;-0.68976563;0.56522465;9.4507475;0.34083033;0.40810293;-0.09286297;15.6;62.250004;-37.5;350.68018;-6.0165462;-4.0583196;1017.64014;-;-;51.52443367;-0.13367646;0.8299999833106995
1530986101466;-;-;-0.6849756;0.5364844;9.527389;0.2971545;0.39478713;-0.052915554;15.6;62.250004;-37.5;350.68018;-6.0165462;-4.0583196;1017.64014;-;-;51.52443367;-0.13367646;0.8299999833106995
1530986101476;-;-;-0.71371585;0.47900394;9.546548;0.24921757;0.34099126;-0.028947106;14.55;61.2;-38.25;350.77057;-6.411165;-4.4664025;1017.6362;-;-;51.52443367;-0.13367646;0.8299999833106995
1530986101486;-;-;-0.5508545;0.57959473;9.6758795;0.15920271;0.21475744;-0.006576552;14.55;61.2;-38.25;350.77057;-6.411165;-4.4664025;1017.6362;-;-;51.52443367;-0.13367646;0.8299999833106995
1530986101496;-;-;-0.35925296;0.41194338;9.718989;0.092623696;0.09225203;0.0062066214;14.85;61.2;-38.25;350.77878;-6.741424;-4.9040565;1017.6362;-;-;51.52443367;-0.13367646;0.8299999833106995
1530986101507;-;-;-0.27303225;0.34009278;9.733359;0.03456678;-0.019068105;-0.008707081;14.85;61.2;-38.25;350.77878;-6.741424;-4.9040565;1017.6362;-;-;51.52443367;-0.13367646;0.8299999833106995
1530986101517;-;-;-0.14370118;0.2778223;9.671089;-5.4314354E-5;-0.05581973;-0.01083761;15.900001;62.250004;-36.600002;350.75827;-6.9168377;-5.1404076;1017.6362;-;-;51.52443367;-0.13367646;0.8299999833106995
1530986101527;-;-;-0.24908204;0.25866213;9.72378;-0.005913269;-0.07872291;-0.041197646;15.900001;62.250004;-36.600002;350.75827;-6.9168377;-5.1404076;1017.6362;-;-;51.52443367;-0.13367646;0.8299999833106995
1530986101538;-;-;-0.30177248;0.28261232;9.77647;0.009533066;-0.0536892;-0.055578716;16.5;63.750004;-38.4;350.7629;-6.9221025;-5.112346;1017.6362;-;-;51.52443367;-0.13367646;0.8299999833106995
1530986101548;-;-;-0.3544629;0.39757326;9.79563;0.05161101;0.004900346;-0.06410083;16.5;63.750004;-38.4;350.7629;-6.9221025;-5.112346;1017.6362;-;-;51.52443367;-0.13367646;0.8299999833106995
1530986101558;-;-;-0.3784131;0.38320315;9.7142;0.101678446;0.06988148;-0.058241878;17.1;61.050003;-38.100002;350.8265;-6.824534;-4.972359;1017.6362;-;-;51.52443367;-0.13367646;0.8299999833106995
1530986101569;-;-;-0.44547364;0.45984375;9.690249;0.14588691;0.13592787;-0.03480606;17.1;61.050003;-38.100002;350.8265;-6.824534;-4.972359;1017.6362;-;-;51.52443367;-0.13367646;0.8299999833106995
1530986101578;-;-;-0.46463382;0.6179151;9.637559;0.14482164;0.13592787;-0.025751311;15.150001;62.4;-37.2;350.8991;-6.8434896;-4.9589057;1017.6384;-;-;51.52443367;-0.13367646;0.8299999833106995
1530986101588;-;-;-0.60354495;0.63707525;9.4507475;0.12298373;0.13805841;-0.0012502299;15.150001;62.4;-37.2;350.8991;-6.8434896;-4.9589057;1017.6384;-;-;51.52443367;-0.13367646;0.8299999833106995
1530986101599;-;-;-0.52690434;0.6562354;9.393267;0.0713184;0.11141898;0.022177458;16.050001;62.100002;-38.100002;350.93454;-6.9748416;-5.083464;1017.6384;-;-;51.52443367;-0.13367646;0.8299999833106995
1530986101609;-;-;-0.49337405;0.76161623;9.417217;-0.014435384;0.07679788;0.045080643;16.050001;62.100002;-38.100002;350.93454;-6.9748416;-5.083464;1017.6384;-;-;51.52443367;-0.13367646;0.8299999833106995
1530986101618;-;-;-0.5556446;0.6322852;9.536968;-0.063437544;0.03205677;0.06532067;16.050001;60.750004;-38.4;350.92172;-7.1211653;-5.2398148;1017.6384;-;-;51.52443367;-0.13367646;0.8299999833106995
1530986101629;-;-;-0.53169435;0.6658155;9.74773;-0.119363934;-0.010553805;0.07757121;16.050001;60.750004;-38.4;350.92172;-7.1211653;-5.2398148;1017.6384;-;-;51.52443367;-0.13367646;0.8299999833106995
1530986101639;-;-;-0.46942386;0.6849756;9.996812;-0.14279975;-0.07926336;0.072777525;16.650002;60.600002;-38.25;350.8619;-7.141885;-5.3290668;1017.6384;-;-;51.52443367;-0.13367646;0.8299999833106995
1530986101649;-;-;-0.34009278;0.79035646;10.030342;-0.13374501;-0.14957082;0.0674512;16.650002;60.600002;-38.25;350.8619;-7.141885;-5.3290668;1017.6384;-;-;51.52443367;-0.13367646;0.8299999833106995
1530986101660;-;-;-0.38320315;0.85741705;10.135723;-0.10817865;-0.19005087;0.04454801;15.450001;62.100002;-37.65;350.779;-7.0233097;-5.3102636;1017.6384;-;-;51.52443367;-0.13367646;0.8299999833106995
1530986101670;-;-;-0.43110353;0.9484278;9.977652;-0.06397018;-0.24331409;0.038156424;15.450001;62.100002;-37.65;350.779;-7.0233097;-5.3102636;1017.6384;-;-;51.52443367;-0.13367646;0.8299999833106995
1530986101681;-;-;-0.45984375;1.1112891;9.359736;-0.037871204;-0.25077093;0.041352216;14.700001;62.100002;-38.100002;350.7196;-6.867114;-5.166252;1017.6433;-;-;51.52443367;-0.13367646;0.8299999833106995
1530986101691;-;-;-0.49337405;1.2406201;9.057964;-0.033077516;-0.23958567;0.05360276;14.700001;62.100002;-38.100002;350.7196;-6.867114;-5.166252;1017.6433;-;-;51.52443367;-0.13367646;0.8299999833106995
1530986101701;-;-;-0.46942386;1.2358302;8.856783;-0.057045963;-0.18312666;0.06425541;16.95;61.95;-38.7;350.70108;-6.7742796;-4.9100513;1017.6433;-;-;51.52443367;-0.13367646;0.8299999833106995
1530986101711;-;-;-0.45505372;1.2022998;8.899893;-0.07302493;-0.13678765;0.07117963;16.95;61.95;-38.7;350.70108;-6.7742796;-4.9100513;1017.6433;-;-;51.52443367;-0.13367646;0.8299999833106995
1530986101722;-;-;-0.49337405;1.2454102;9.139395;-0.08101441;-0.10909077;0.080767006;15.900001;60.9;-38.7;350.67804;-6.7307196;-4.624036;1017.6433;-;-;51.52443367;-0.13367646;0.8299999833106995
1530986101732;-;-;-0.49337405;1.341211;9.230406;-0.083677575;-0.10110128;0.0823649;15.450001;62.100002;-38.4;350.67804;-6.7307196;-4.624036;1017.6433;-;-;51.52443367;-0.13367646;0.8299999833106995
1530986101742;-;-;-0.46463382;1.4082716;9.292676;-0.083677575;-0.14158134;0.09674597;15.450001;62.100002;-38.4;350.62827;-6.6597395;-4.434014;1017.6433;-;-;51.52443367;-0.13367646;0.8299999833106995
1530986101752;-;-;-0.3305127;1.4226416;9.177715;-0.087405995;-0.17140874;0.102604926;14.55;60.600002;-38.25;350.5493;-6.566551;-4.303539;1017.6433;-;-;51.52443367;-0.13367646;0.8299999833106995
1530986101763;-;-;-0.19160157;1.4034815;9.134604;-0.12469026;-0.20602983;0.069581725;14.55;60.600002;-38.25;350.5493;-6.566551;-4.303539;1017.6433;-;-;51.52443367;-0.13367646;0.8299999833106995
1530986101773;-;-;-0.32572266;1.4992822;9.096285;-0.1385387;-0.22893302;0.064788036;14.250001;59.850002;-39.0;350.46005;-6.471608;-4.113037;1017.6433;-;-;51.52443367;-0.13367646;0.8299999833106995
1530986101783;-;-;-0.7232959;1.6046631;9.163345;-0.1715619;-0.2997731;0.07970174;14.250001;59.850002;-39.0;350.46005;-6.471608;-4.113037;1017.64825;-;-;51.52443367;-0.13367646;0.8299999833106995
1530986101793;-;-;-0.6993457;1.7292042;9.172925;-0.17795348;-0.30190364;0.09195228;13.650001;60.750004;-38.100002;350.40848;-6.329402;-3.8564992;1017.64825;-;-;51.52443367;-0.13367646;0.8299999833106995
1530986101804;-;-;-0.5125342;1.5471827;9.105865;-0.20351984;-0.2582278;0.116453364;13.650001;60.750004;-38.100002;350.40848;-6.329402;-3.8564992;1017.64825;-;-;51.52443367;-0.13367646;0.8299999833106995
1530986101814;-;-;-0.3784131;1.4034815;9.230406;-0.20458509;-0.2102909;0.101539664;15.150001;61.350002;-38.100002;350.35092;-6.137833;-3.5099173;1017.64825;-;-;51.52443367;-0.13367646;0.8299999833106995
1530986101824;-;-;-0.20597169;1.2885206;9.685459;-0.16410504;-0.12187394;0.08183227;15.150001;61.350002;-38.100002;350.35092;-6.137833;-3.5099173;1017.64825;-;-;51.52443367;-0.13367646;0.8299999833106995
1530986101834;-;-;-0.10538086;1.2933106;9.901011;-0.11670077;-0.07074124;0.030699572;15.750001;60.750004;-37.2;350.2562;-5.9125934;-3.21399;1017.64825;-;-;51.52443367;-0.13367646;0.8299999833106995
1530986101845;-;-;-0.06227051;1.336421;10.121353;-0.009641694;-0.021206448;-0.027889973;15.750001;60.750004;-37.2;350.2562;-5.9125934;-3.21399;1017.64825;-;-;51.52443367;-0.13367646;0.8299999833106995
1530986101855;-;-;0.06706055;1.4370118;9.896221;0.055872068;6.3147175E-4;-0.08062056;13.950001;61.2;-36.15;350.19543;-5.7437043;-3.0783458;1017.64825;-;-;51.52443367;-0.13367646;0.8299999833106995
1530986101865;-;-;-0.09580079;1.5998731;9.68067;0.10380897;-0.003096954;-0.13441642;13.950001;61.2;-36.15;350.19543;-5.7437043;-3.0783458;1017.64825;-;-;51.52443367;-0.13367646;0.8299999833106995
1530986101877;-;-;-0.33530274;1.5807129;9.388477;0.10061318;-0.01907592;-0.15359117;13.35;63.15;-37.2;350.24295;-5.7393217;-3.0590749;1017.653;-;-;51.52443367;-0.13367646;0.8299999833106995
1530986101888;-;-;-0.5891748;1.7771046;9.115445;0.056937333;-0.0616865;-0.16530909;13.35;63.15;-37.2;350.24295;-5.7393217;-3.0590749;1017.653;-;-;51.52443367;-0.13367646;0.8299999833106995
1530986101898;-;-;-0.7424561;1.9255958;9.115445;-0.016565913;-0.04943596;-0.14293852;14.55;61.95;-37.800003;350.38824;-5.847718;-3.071487;1017.653;-;-;51.52443367;-0.13367646;0.8299999833106995
1530986101908;-;-;-0.852627;2.0070264;9.230406;-0.062372286;-0.02386961;-0.10086059;14.55;61.95;-37.800003;350.38824;-5.847718;-3.071487;1017.653;-;-;51.52443367;-0.13367646;0.8299999833106995
1530986101919;-;-;-0.7759864;2.069297;9.445957;-0.10498286;0.0075556906;-0.059315275;14.700001;63.15;-38.4;350.57758;-5.9074965;-3.0315793;1017.653;-;-;51.52443367;-0.13367646;0.8299999833106995
1530986101930;-;-;-0.68976563;2.0405567;9.77168;-0.11563551;0.04856837;-0.035346825;14.700001;63.15;-38.4;350.57758;-5.9074965;-3.0315793;1017.653;-;-;51.52443367;-0.13367646;0.8299999833106995
1530986101939;-;-;-0.68018556;1.9830762;10.150093;-0.089536525;0.08159158;-0.019367857;14.400001;62.100002;-39.600002;350.71143;-5.874012;-3.0170121;1017.653;-;-;51.52443367;-0.13367646;0.8299999833106995
1530986101950;-;-;-0.7711963;2.0070264;10.317744;-0.03893647;0.141779;-0.0060520507;14.400001;62.100002;-39.600002;350.71143;-5.874012;-3.0170121;1017.653;-;-;51.52443367;-0.13367646;0.8299999833106995
1530986101960;-;-;-0.7568262;1.9160157;10.408755;0.012196227;0.1748022;0.012057445;14.55;62.550003;-38.7;350.7533;-5.8079886;-3.0772626;1017.653;-;-;51.52443367;-0.13367646;0.8299999833106995
1530986101970;-;-;-0.9388477;1.9878663;10.432706;0.035632044;0.19024853;0.03762379;14.55;62.550003;-38.7;350.7533;-5.8079886;-3.0772626;1017.653;-;-;51.52443367;-0.13367646;0.8299999833106995
1530986101980;-;-;-0.9580079;2.1028273;10.485396;0.05161101;0.18332432;0.06691857;14.85;61.95;-38.25;350.7515;-5.7471657;-3.218721;1017.6541;-;-;51.52443367;-0.13367646;0.8299999833106995
1530986101991;-;-;-1.0442286;2.083667;10.437495;0.050013114;0.15243165;0.101539664;14.85;61.95;-38.25;350.7515;-5.7471657;-3.218721;1017.6541;-;-;51.52443367;-0.13367646;0.8299999833106995
1530986102000;-;-;-0.9915381;2.179468;10.284214;0.031903617;0.07892841;0.15853131;13.500001;61.500004;-37.5;350.6972;-5.776567;-3.4190526;1017.6541;-;-;51.52443367;-0.13367646;0.8299999833106995
1530986102010;-;-;-0.8095166;2.1171973;10.044712;0.0042067436;0.034719933;0.199544;13.500001;61.500004;-37.5;350.6972;-5.776567;-3.4190526;1017.6541;-;-;51.52443367;-0.13367646;0.8299999833106995
1530986102021;-;-;-0.45984375;2.1267774;9.75252;-0.04905648;-0.009488541;0.22670823;15.150001;62.100002;-37.65;350.57794;-5.841931;-3.5914032;1017.6541;-;-;51.52443367;-0.13367646;0.8299999833106995
1530986102031;-;-;-0.34967285;1.9687061;9.68067;-0.10817865;-0.044109635;0.24961142;15.150001;62.100002;-37.65;350.57794;-5.841931;-3.5914032;1017.6541;-;-;51.52443367;-0.13367646;0.8299999833106995
1530986102041;-;-;-0.2921924;1.8872755;9.75252;-0.17582296;-0.06275176;0.23469771;15.750001;61.800003;-36.45;350.3649;-5.8737426;-3.6340275;1017.6541;-;-;51.52443367;-0.13367646;0.8299999833106995
1530986102051;-;-;-0.27303225;1.8537452;10.015972;-0.19766088;-0.055294912;0.2293714;14.250001;61.500004;-38.25;350.09146;-5.8249745;-3.5578873;1017.6541;-;-;51.52443367;-0.13367646;0.8299999833106995
1530986102062;-;-;-0.5125342;1.9160157;10.346485;-0.19339982;-0.07766546;0.21179454;14.250001;61.500004;-38.25;350.09146;-5.8249745;-3.5578873;1017.6541;-;-;51.52443367;-0.13367646;0.8299999833106995
1530986102072;-;-;-0.7664063;2.059717;10.447076;-0.17901875;-0.09790549;0.22084928;13.650001;60.750004;-37.2;349.83508;-5.640809;-3.4589372;1017.6541;-;-;51.52443367;-0.13367646;0.8299999833106995
1530986102082;-;-;-1.0346485;2.0357666;10.542876;-0.12682079;-0.17087612;0.2576009;13.650001;60.750004;-37.2;349.83508;-5.640809;-3.4589372;1017.6449;-;-;51.52443367;-0.13367646;0.8299999833106995
1530986102092;-;-;-1.0154883;1.9974464;10.600357;-0.11084182;-0.21401933;0.27038407;15.150001;63.15;-38.4;349.59518;-5.447936;-3.3338556;1017.6449;-;-;51.52443367;-0.13367646;0.8299999833106995
1530986102103;-;-;-0.9436377;1.9447559;10.514136;-0.035740677;-0.28060073;0.29488268;15.150001;63.15;-38.4;349.59518;-5.447936;-3.3338556;1017.6449;-;-;51.52443367;-0.13367646;0.8299999833106995
1530986102113;-;-;-0.847837;1.949546;10.356065;0.016989917;-0.281666;0.2986111;14.400001;62.100002;-39.300003;349.31577;-5.3287168;-3.0917382;1017.6449;-;-;51.52443367;-0.13367646;0.8299999833106995
1530986102123;-;-;-0.48379397;1.7914747;10.183623;0.10700477;-0.23000066;0.2757079;14.400001;62.100002;-39.300003;349.31577;-5.3287168;-3.0917382;1017.6449;-;-;51.52443367;-0.13367646;0.8299999833106995
1530986102134;-;-;-0.4167334;1.5519727;10.279425;0.17305115;-0.19111851;0.23469524;14.250001;62.250004;-38.7;349.00574;-5.3217306;-2.743885;1017.6449;-;-;51.52443367;-0.13367646;0.8299999833106995
1530986102144;-;-;-0.34488282;1.2933106;10.423125;0.28330603;-0.19005324;0.13509302;14.250001;62.250004;-38.7;349.00574;-5.3217306;-2.743885;1017.6449;-;-;51.52443367;-0.13367646;0.8299999833106995
1530986102154;-;-;-0.40715334;1.6286134;10.274634;0.34615666;-0.087255225;0.0951456;14.700001;62.100002;-38.100002;348.73102;-5.4779735;-2.463809;1017.6449;-;-;51.52443367;-0.13367646;0.8299999833106995
1530986102165;-;-;-0.4742139;2.0357666;10.188414;0.3898325;0.03258703;0.099939294;14.700001;62.100002;-38.100002;348.73102;-5.4779735;-2.463809;1017.6449;-;-;51.52443367;-0.13367646;0.8299999833106995
1530986102175;-;-;-0.82388675;2.1124072;9.977652;0.3834409;0.0618818;0.110059306;14.1;62.7;-38.4;348.6001;-5.831419;-2.2874267;1017.6427;-;-;51.52443367;-0.13367646;0.8299999833106995
1530986102185;-;-;-1.3220508;1.9734962;9.896221;0.25347865;0.17906089;0.1761057;14.1;62.7;-38.4;348.6001;-5.831419;-2.2874267;1017.6427;-;-;51.52443367;-0.13367646;0.8299999833106995
1530986102195;-;-;-1.4753321;1.8154249;9.924961;0.14428902;0.2403136;0.24374999;14.400001;60.750004;-38.100002;348.4806;-6.273544;-2.3123264;1017.6427;-;-;51.52443367;-0.13367646;0.8299999833106995
1530986102206;-;-;-1.4274317;1.590293;10.289004;-0.07355756;0.32020843;0.35293958;14.400001;60.750004;-38.100002;348.4806;-6.273544;-2.3123264;1017.6427;-;-;51.52443367;-0.13367646;0.8299999833106995
1530986102216;-;-;-1.2166699;1.2597803;10.98835;-0.21204194;0.3644169;0.4211165;13.500001;62.250004;-39.45;348.24866;-6.5866113;-2.5172155;1017.6427;-;-;51.52443367;-0.13367646;0.8299999833106995
1530986102226;-;-;-0.86220706;0.91010743;11.931988;-0.2695662;0.33672002;0.46106392;13.500001;62.250004;-39.45;348.24866;-6.5866113;-2.5172155;1017.6427;-;-;51.52443367;-0.13367646;0.8299999833106995
1530986102237;-;-;-0.2682422;0.3879932;12.770245;-0.16730084;0.22646517;0.4243123;13.950001;61.2;-39.45;347.8057;-6.530392;-2.8361223;1017.6427;-;-;51.52443367;-0.13367646;0.8299999833106995
1530986102247;-;-;0.1101709;0.100590825;12.698394;-0.0053806365;0.121536605;0.34921116;13.950001;61.2;-39.45;347.8057;-6.530392;-2.8361223;1017.6427;-;-;51.52443367;-0.13367646;0.8299999833106995
1530986102258;-;-;0.3065625;-0.20597169;11.975099;0.15494166;0.032054394;0.26292473;15.6;60.9;-37.5;347.25302;-6.272372;-3.152471;1017.6427;-;-;51.52443367;-0.13367646;0.8299999833106995
1530986102267;-;-;0.4742139;-0.16286133;10.97877;0.24442387;-0.04784044;0.16598569;15.6;60.9;-37.5;347.25302;-6.272372;-3.152471;1017.6427;-;-;51.52443367;-0.13367646;0.8299999833106995
1530986102277;-;-;0.3305127;0.019160157;10.197993;0.2577397;-0.11388684;0.07224242;16.800001;61.050003;-38.850002;346.81793;-6.2440944;-3.2722723;1017.6427;-;-;51.52443367;-0.13367646;0.8299999833106995
1530986102288;-;-;-0.0047900393;0.06706055;9.493857;0.23963018;-0.14051844;-0.012978745;16.800001;61.050003;-38.850002;346.81793;-6.2440944;-3.2722723;1017.6427;-;-;51.52443367;-0.13367646;0.8299999833106995
1530986102298;-;-;-0.57001466;0.22992188;9.024434;0.18104064;-0.17194374;-0.06357881;16.650002;61.500004;-37.800003;346.60944;-6.500387;-3.2150807;1017.6427;-;-;51.52443367;-0.13367646;0.8299999833106995
1530986102308;-;-;-1.0346485;0.44547364;8.808882;0.12458163;-0.1431816;-0.05985038;16.650002;61.500004;-37.800003;346.60944;-6.500387;-3.2150807;1017.6427;-;-;51.52443367;-0.13367646;0.8299999833106995
1530986102318;-;-;-1.5376027;0.7232959;8.804092;0.055872068;-0.07287416;-0.0076524224;15.450001;60.750004;-38.4;346.62692;-6.6236424;-2.9627206;1017.6427;-;-;51.52443367;-0.13367646;0.8299999833106995
1530986102329;-;-;-1.590293;0.7951465;8.847202;0.019653078;-0.04038359;0.036556054;15.450001;60.750004;-38.4;346.62692;-6.6236424;-2.9627206;1017.6427;-;-;51.52443367;-0.13367646;0.8299999833106995
1530986102338;-;-;-1.6046631;0.7424561;8.875943;-0.03201225;0.0043575186;0.11538563;15.900001;59.850002;-36.15;346.71393;-6.776392;-2.8010921;1017.6427;-;-;51.52443367;-0.13367646;0.8299999833106995
1530986102348;-;-;-1.6860938;0.6610254;8.966953;-0.08101441;0.042174406;0.18462782;15.900001;59.850002;-36.15;346.71393;-6.776392;-2.8010921;1017.6427;-;-;51.52443367;-0.13367646;0.8299999833106995
1530986102360;-;-;-1.4418018;0.5748047;9.072334;-0.11457024;0.11834081;0.26825106;15.900001;60.9;-37.800003;346.69174;-6.810777;-2.74611;1017.6427;-;-;51.52443367;-0.13367646;0.8299999833106995
1530986102368;-;-;-1.341211;0.488584;9.086704;-0.13481027;0.17160404;0.32630798;15.900001;60.9;-37.800003;346.69174;-6.810777;-2.74611;1017.6427;-;-;51.52443367;-0.13367646;0.8299999833106995
1530986102378;-;-;-1.0681788;0.3161426;9.235196;-0.16144188;0.2573578;0.38543016;16.650002;59.100002;-37.5;346.4936;-6.7360826;-2.7873347;1017.6378;-;-;51.52443367;-0.13367646;0.8299999833106995
1530986102389;-;-;-0.852627;0.19160157;9.469908;-0.17955138;0.3116863;0.41738808;16.650002;59.100002;-37.5;346.4936;-6.7360826;-2.7873347;1017.6378;-;-;51.52443367;-0.13367646;0.8299999833106995
1530986102399;-;-;-0.5460645;0.023950197;9.843531;-0.20245457;0.34843794;0.44508496;16.5;60.300003;-37.65;346.12143;-6.6062756;-2.9369054;1017.6378;-;-;51.52443367;-0.13367646;0.8299999833106995
1530986102410;-;-;-0.43110353;0.019160157;10.044712;-0.21204194;0.3495032;0.439226;16.5;60.750004;-37.65;345.61487;-6.42235;-3.225887;1017.6378;-;-;51.52443367;-0.13367646;0.8299999833106995
1530986102420;-;-;-0.1820215;-0.1580713;10.327325;-0.22589038;0.33778527;0.43336704;16.5;60.750004;-37.65;345.61487;-6.42235;-3.225887;1017.6378;-;-;51.52443367;-0.13367646;0.8299999833106995
1530986102431;-;-;-0.038320314;-0.1580713;10.590776;-0.21843353;0.3036968;0.41365966;17.1;59.4;-37.2;345.07184;-6.178348;-3.5682888;1017.6378;-;-;51.52443367;-0.13367646;0.8299999833106995
1530986102441;-;-;0.119750984;-0.25866213;10.758429;-0.1864756;0.25575992;0.3502764;17.1;59.4;-37.2;345.07184;-6.178348;-3.5682888;1017.6378;-;-;51.52443367;-0.13367646;0.8299999833106995
1530986102452;-;-;0.17723145;-0.24908204;10.95961;-0.15451767;0.20888829;0.30606794;17.7;59.850002;-38.25;344.5609;-5.9524746;-3.8686953;1017.6378;-;-;51.52443367;-0.13367646;0.8299999833106995
1530986102462;-;-;-0.06227051;-0.23471193;10.96919;-0.06077439;0.10609027;0.21552049;17.7;59.850002;-38.25;344.5609;-5.9524746;-3.8686953;1017.6378;-;-;51.52443367;-0.13367646;0.8299999833106995
1530986102473;-;-;-0.14849122;-0.14370118;10.839859;-0.017098546;0.0469681;0.171312;16.800001;60.300003;-36.0;344.17435;-5.7957234;-4.0819564;1017.6378;-;-;51.52443367;-0.13367646;0.8299999833106995
1530986102483;-;-;-0.20118165;0.16765137;10.413546;0.03509941;-0.06275415;0.121777214;16.800001;60.300003;-36.0;344.17435;-5.7957234;-4.0819564;1017.6458;-;-;51.52443367;-0.13367646;0.8299999833106995
1530986102492;-;-;-0.32093263;0.36883304;10.097403;0.048415218;-0.118147895;0.096743494;16.050001;60.750004;-37.65;343.9414;-5.765557;-4.1477566;1017.6458;-;-;51.52443367;-0.13367646;0.8299999833106995
1530986102502;-;-;-0.38320315;0.5987549;9.623189;0.041490998;-0.1746069;0.07650347;16.050001;60.750004;-37.65;343.9414;-5.765557;-4.1477566;1017.6458;-;-;51.52443367;-0.13367646;0.8299999833106995
1530986102513;-;-;-0.36883304;0.76161623;9.3309965;0.016989917;-0.20656484;0.081829794;16.650002;61.2;-39.0;343.82126;-5.8165274;-4.0421467;1017.6458;-;-;51.52443367;-0.13367646;0.8299999833106995
1530986102523;-;-;-0.3065625;0.8765772;9.010064;-0.011239591;-0.22787012;0.074905574;16.650002;61.2;-39.0;343.82126;-5.8165274;-4.0421467;1017.6458;-;-;51.52443367;-0.13367646;0.8299999833106995
1530986102533;-;-;-0.25387207;0.9580079;8.885523;-0.017098546;-0.20336905;0.06851399;16.800001;60.300003;-38.100002;343.7517;-5.858941;-3.8211098;1017.6458;-;-;51.52443367;-0.13367646;0.8299999833106995
1530986102543;-;-;-0.119750984;1.0633887;8.780142;-0.01337012;-0.1596932;0.056263443;16.800001;60.300003;-38.100002;343.7517;-5.858941;-3.8211098;1017.6458;-;-;51.52443367;-0.13367646;0.8299999833106995
1530986102554;-;-;-0.086220704;1.1591895;8.799302;-0.024555396;-0.13359423;0.047208697;16.5;61.050003;-37.65;343.69373;-5.855194;-3.573982;1017.6458;-;-;51.52443367;-0.13367646;0.8299999833106995
1530986102564;-;-;-0.033530276;1.331631;8.832832;-0.00857643;-0.09577734;0.024838144;16.5;61.050003;-37.65;343.69373;-5.855194;-3.573982;1017.6458;-;-;51.52443367;-0.13367646;0.8299999833106995
1530986102575;-;-;-0.32572266;1.4849122;9.010064;-0.0037827399;-0.07926574;0.020577086;17.25;60.600002;-39.0;343.64658;-5.839015;-3.3876305;1017.6427;-;-;51.52443367;-0.13367646;0.8299999833106995
1530986102584;-;-;-0.53169435;1.6573536;9.105865;-0.0053806365;-0.06594994;0.040284477;17.25;60.600002;-39.0;343.64658;-5.839015;-3.3876305;1017.6427;-;-;51.52443367;-0.13367646;0.8299999833106995
1530986102595;-;-;-0.7232959;1.7723145;9.239985;-0.009641694;-0.053166762;0.061057135;17.1;61.050003;-36.75;343.6227;-5.832176;-3.2771463;1017.6427;-;-;51.52443367;-0.13367646;0.8299999833106995
1530986102606;-;-;-0.6466553;1.9016455;9.321417;-0.020294338;-0.06435204;0.074905574;17.1;61.050003;-36.75;343.6227;-5.832176;-3.2771463;1017.6427;-;-;51.52443367;-0.13367646;0.8299999833106995
1530986102615;-;-;-0.5843848;1.7771046;9.484278;-0.022424867;-0.07979838;0.07330768;17.7;60.15;-38.7;343.58017;-5.8295736;-3.2037365;1017.6427;-;-;51.52443367;-0.13367646;0.8299999833106995
1530986102626;-;-;-0.35925296;1.6334034;9.685459;-0.024555396;-0.11655;0.041882373;17.7;60.15;-38.7;343.58017;-5.8295736;-3.2037365;1017.6427;-;-;51.52443367;-0.13367646;0.8299999833106995
1530986102636;-;-;-0.42152345;1.5998731;9.77168;-0.017631179;-0.1644869;-0.0039239964;17.25;60.600002;-38.25;343.50348;-5.818402;-3.117435;1017.6427;-;-;51.52443367;-0.13367646;0.8299999833106995
1530986102647;-;-;-0.37362307;1.5615528;9.972861;-0.0037827399;-0.20230378;-0.040142987;17.25;60.600002;-38.25;343.50348;-5.818402;-3.117435;1017.6427;-;-;51.52443367;-0.13367646;0.8299999833106995
1530986102657;-;-;-0.22513184;1.5423926;10.130933;0.039360467;-0.21988064;-0.074231446;16.95;59.100002;-38.7;343.4655;-5.7998533;-2.975492;1017.6427;-;-;51.52443367;-0.13367646;0.8299999833106995
1530986102667;-;-;-0.20118165;1.5184424;10.245894;0.08729737;-0.2225438;-0.11737466;16.95;59.100002;-38.7;343.4655;-5.7998533;-2.975492;1017.6427;-;-;51.52443367;-0.13367646;0.8299999833106995
1530986102678;-;-;-0.20118165;1.3699512;10.360855;0.15174587;-0.21775012;-0.15838733;15.450001;60.300003;-39.300003;343.52783;-5.796584;-2.7632468;1017.6476;-;-;51.52443367;-0.13367646;0.8299999833106995
1530986102688;-;-;-0.15328126;1.3076807;10.255474;0.20927015;-0.23159856;-0.20952003;15.450001;60.300003;-39.300003;343.52783;-5.796584;-2.7632468;1017.6476;-;-;51.52443367;-0.13367646;0.8299999833106995
1530986102698;-;-;-0.3879932;1.3076807;10.226734;0.3040787;-0.26142597;-0.31018755;16.050001;60.750004;-39.300003;343.6804;-5.8906837;-2.530319;1017.6476;-;-;51.52443367;-0.13367646;0.8299999833106995
1530986102708;-;-;-0.5412744;1.341211;9.934542;0.35734192;-0.27953547;-0.3538634;16.050001;60.750004;-39.300003;343.6804;-5.8906837;-2.530319;1017.6476;-;-;51.52443367;-0.13367646;0.8299999833106995
1530986102719;-;-;-0.9148975;1.456172;9.551338;0.4100725;-0.2768723;-0.39168027;16.35;60.600002;-36.15;343.94955;-6.1147046;-2.2907498;1017.6476;-;-;51.52443367;-0.13367646;0.8299999833106995
1530986102728;-;-;-1.0394385;1.5711329;9.307046;0.42285568;-0.25823018;-0.39434344;16.35;60.600002;-36.15;343.94955;-6.1147046;-2.2907498;1017.6476;-;-;51.52443367;-0.13367646;0.8299999833106995
1530986102739;-;-;-1.2454102;1.8010547;9.024434;0.40421355;-0.1959122;-0.38795185;16.35;60.600002;-37.800003;344.3763;-6.492467;-2.0227377;1017.6476;-;-;51.52443367;-0.13367646;0.8299999833106995
1530986102750;-;-;-1.2597803;1.8729054;8.971744;0.39356092;-0.1431816;-0.36930972;16.35;59.850002;-39.9;344.86145;-6.955696;-1.7855418;1017.6476;-;-;51.52443367;-0.13367646;0.8299999833106995
1530986102760;-;-;-1.4130616;1.9639161;9.005274;0.35521138;-0.06275415;-0.31338334;16.35;59.850002;-39.9;344.86145;-6.955696;-1.7855418;1017.6476;-;-;51.52443367;-0.13367646;0.8299999833106995
1530986102771;-;-;-1.3220508;1.9399658;9.029224;0.33017766;-0.004164597;-0.28089276;14.700001;60.300003;-39.300003;344.86145;-6.955696;-1.7855418;1017.6476;-;-;51.52443367;-0.13367646;0.8299999833106995
1530986102781;-;-;-1.3172607;1.829795;9.196876;0.27797973;0.10076395;-0.23561901;14.700001;60.300003;-39.300003;345.29694;-7.4154816;-1.7050543;1017.65234;-;-;51.52443367;-0.13367646;0.8299999833106995
1530986102791;-;-;-1.2406201;1.7483643;9.474698;0.25241336;0.1279282;-0.21750952;15.6;60.9;-39.45;345.62454;-7.8315296;-1.7962257;1017.65234;-;-;51.52443367;-0.13367646;0.8299999833106995
1530986102801;-;-;-1.1687696;1.6286134;9.642349;0.21353121;0.1923767;-0.20845477;15.6;60.9;-39.45;345.62454;-7.8315296;-1.7962257;1017.65234;-;-;51.52443367;-0.13367646;0.8299999833106995
1530986102812;-;-;-1.21188;1.6142433;9.905801;0.19915013;0.20942093;-0.1908779;15.750001;59.4;-38.850002;345.8607;-8.1466465;-2.0036194;1017.65234;-;-;51.52443367;-0.13367646;0.8299999833106995
1530986102823;-;-;-1.2310401;1.5950831;10.317744;0.19435644;0.24936835;-0.18981265;15.750001;59.4;-38.850002;345.8607;-8.1466465;-2.0036194;1017.65234;-;-;51.52443367;-0.13367646;0.8299999833106995
1530986102833;-;-;-1.1543995;1.4274317;10.595567;0.20447646;0.25096622;-0.19940002;16.050001;59.7;-38.100002;346.05;-8.384378;-2.279466;1017.65234;-;-;51.52443367;-0.13367646;0.8299999833106995
1530986102843;-;-;-1.22625;1.2645704;10.950029;0.25507653;0.23285675;-0.22283584;16.050001;59.7;-38.100002;346.05;-8.384378;-2.279466;1017.65234;-;-;51.52443367;-0.13367646;0.8299999833106995
1530986102853;-;-;-1.2645704;1.331631;11.03625;0.29821974;0.21687779;-0.23295586;15.750001;59.4;-39.300003;346.22852;-8.605596;-2.592232;1017.65234;-;-;51.52443367;-0.13367646;0.8299999833106995
1530986102863;-;-;-1.22146;1.3172607;10.734478;0.38610405;0.1657451;-0.2404127;15.750001;59.4;-39.300003;346.22852;-8.605596;-2.592232;1017.65234;-;-;51.52443367;-0.13367646;0.8299999833106995
1530986102874;-;-;-1.0729688;1.4130616;10.365645;0.41965988;0.14497243;-0.24627165;15.6;58.500004;-38.7;346.44302;-8.904652;-2.8889003;1017.65405;-;-;51.52443367;-0.13367646;0.8299999833106995
1530986102884;-;-;-0.98195803;1.5040723;9.599238;0.4244536;0.12739557;-0.23082532;15.6;58.500004;-38.7;346.44302;-8.904652;-2.8889003;1017.65405;-;-;51.52443367;-0.13367646;0.8299999833106995
1530986102895;-;-;-0.8813672;1.4753321;8.938213;0.31686187;0.18545248;-0.2073895;14.400001;59.4;-36.75;346.683;-9.337673;-3.1118095;1017.65405;-;-;51.52443367;-0.13367646;0.8299999833106995
1530986102905;-;-;-0.8861573;1.331631;8.899893;0.21619436;0.23392202;-0.20206319;14.400001;59.4;-36.75;346.683;-9.337673;-3.1118095;1017.65405;-;-;51.52443367;-0.13367646;0.8299999833106995
1530986102916;-;-;-1.1256592;1.2166699;9.230406;0.06918788;0.31541473;-0.18874738;17.1;57.9;-40.5;346.9133;-9.785152;-3.3152895;1017.65405;-;-;51.52443367;-0.13367646;0.8299999833106995
1530986102926;-;-;-1.1543995;1.1687696;9.814791;-0.006445901;0.3676127;-0.17649683;17.1;57.9;-40.5;346.9133;-9.785152;-3.3152895;1017.65405;-;-;51.52443367;-0.13367646;0.8299999833106995
1530986102936;-;-;-1.0825489;1.1064991;10.327325;-0.033077516;0.39477694;-0.16211577;14.85;58.050003;-37.5;347.09067;-9.996813;-3.6355822;1017.65405;-;-;51.52443367;-0.13367646;0.8299999833106995
1530986102946;-;-;-0.9484278;1.0777588;10.528506;-0.026153294;0.38678744;-0.15412629;14.85;58.050003;-37.5;347.09067;-9.996813;-3.6355822;1017.65405;-;-;51.52443367;-0.13367646;0.8299999833106995
1530986102957;-;-;-0.9148975;0.90052736;10.514136;-0.009109062;0.3260674;-0.17010525;15.900001;57.750004;-38.7;347.22147;-9.986071;-4.080374;1017.65405;-;-;51.52443367;-0.13367646;0.8299999833106995
1530986102967;-;-;-0.96758795;0.9532178;10.207574;-0.017098546;0.2621515;-0.18874738;15.900001;57.750004;-38.7;347.22147;-9.986071;-4.080374;1017.65405;-;-;51.52443367;-0.13367646;0.8299999833106995
1530986102977;-;-;-1.1400293;0.977168;9.671089;-0.045328055;0.20302935;-0.1988674;16.050001;58.350002;-39.300003;347.32712;-9.950724;-4.5437164;1017.6556;-;-;51.52443367;-0.13367646;0.8299999833106995
1530986102987;-;-;-1.2166699;1.1879297;9.560919;-0.12096183;0.13751557;-0.18129052;16.050001;58.350002;-39.300003;347.32712;-9.950724;-4.5437164;1017.6556;-;-;51.52443367;-0.13367646;0.8299999833106995
1530986102998;-;-;-1.1448194;1.3076807;9.402847;-0.2376083;0.10715554;-0.13548416;17.25;57.45;-39.9;347.48666;-9.9141655;-4.889508;1017.6556;-;-;51.52443367;-0.13367646;0.8299999833106995
1530986103007;-;-;-1.0442286;1.2789404;9.584868;-0.2860778;0.11621028;-0.112048335;17.25;57.45;-39.9;347.48666;-9.9141655;-4.889508;1017.6556;-;-;51.52443367;-0.13367646;0.8299999833106995
1530986103017;-;-;-0.9532178;1.1783496;9.829161;-0.308981;0.14710297;-0.0816883;17.1;58.65;-38.100002;347.66678;-9.751725;-5.0859456;1017.6556;-;-;51.52443367;-0.13367646;0.8299999833106995
1530986103027;-;-;-0.8669971;1.1064991;9.857901;-0.29673046;0.16787562;-0.058252484;17.1;58.65;-38.100002;347.66678;-9.751725;-5.0859456;1017.6556;-;-;51.52443367;-0.13367646;0.8299999833106995
1530986103038;-;-;-0.6945557;0.9580079;9.968072;-0.28554517;0.21474725;-0.036947194;16.95;57.750004;-37.050003;347.7733;-9.4266405;-5.2417493;1017.6556;-;-;51.52443367;-0.13367646;0.8299999833106995
1530986103048;-;-;-0.5221143;0.89573735;9.977652;-0.28181675;0.26321676;-0.022566125;16.95;57.750004;-37.050003;347.7733;-9.4266405;-5.2417493;1017.6556;-;-;51.52443367;-0.13367646;0.8299999833106995
1530986103058;-;-;-0.32572266;0.7951465;10.054293;-0.33774313;0.3148821;-0.026827183;17.1;58.95;-37.65;347.80865;-9.083338;-5.4498434;1017.6556;-;-;51.52443367;-0.13367646;0.8299999833106995
1530986103068;-;-;-0.43589357;0.7759864;10.241104;-0.36597264;0.33192632;-0.039077725;17.1;58.95;-37.65;347.80865;-9.083338;-5.4498434;1017.66113;-;-;51.52443367;-0.13367646;0.8299999833106995
1530986103079;-;-;-0.53169435;0.6227051;10.897339;-0.3899411;0.3250021;-0.053991426;17.550001;60.000004;-40.5;347.7915;-8.7494;-5.7446856;1017.66113;-;-;51.52443367;-0.13367646;0.8299999833106995
1530986103089;-;-;-0.4406836;0.60833496;11.270963;-0.3899411;0.2967726;-0.057719853;16.5;58.95;-36.45;347.77734;-8.328802;-6.1110306;1017.66113;-;-;51.52443367;-0.13367646;0.8299999833106995
1530986103099;-;-;-0.31135255;0.5891748;11.620635;-0.3537221;0.26959577;-0.0705161;16.5;58.95;-36.45;347.77734;-8.328802;-6.1110306;1017.66113;-;-;51.52443367;-0.13367646;0.8299999833106995
1530986103110;-;-;-0.32093263;0.39757326;11.682906;-0.31643784;0.22645259;-0.0902235;18.150002;59.7;-38.850002;347.78827;-7.885314;-6.462204;1017.66113;-;-;51.52443367;-0.13367646;0.8299999833106995
1530986103120;-;-;-0.3305127;0.29698244;11.711646;-0.24719568;0.16147146;-0.14721514;18.150002;59.7;-38.850002;347.78827;-7.885314;-6.462204;1017.66113;-;-;51.52443367;-0.13367646;0.8299999833106995
1530986103130;-;-;-0.34967285;0.32572266;11.740386;-0.20778088;0.11300192;-0.18556467;17.25;59.550003;-38.25;347.84967;-7.506042;-6.749733;1017.66113;-;-;51.52443367;-0.13367646;0.8299999833106995
1530986103140;-;-;-0.4023633;0.39278322;11.563155;-0.12788606;0.040563934;-0.23616473;17.25;59.550003;-38.25;347.84967;-7.506042;-6.749733;1017.66113;-;-;51.52443367;-0.13367646;0.8299999833106995
1530986103151;-;-;-0.52690434;0.40715334;11.534414;-0.09379759;-0.009503494;-0.2654595;17.25;58.800003;-38.25;348.02374;-7.232713;-6.9190216;1017.66113;-;-;51.52443367;-0.13367646;0.8299999833106995
1530986103161;-;-;-0.6322852;0.4981641;11.199112;-0.017631179;-0.08513727;-0.31712484;17.25;58.800003;-38.25;348.02374;-7.232713;-6.9190216;1017.66113;-;-;51.52443367;-0.13367646;0.8299999833106995
1530986103171;-;-;-0.728086;0.56522465;10.921289;0.038827837;-0.13733523;-0.34215856;18.0;61.2;-37.5;348.31958;-7.0789876;-6.9676175;1017.6496;-;-;51.52443367;-0.13367646;0.8299999833106995
1530986103182;-;-;-0.847837;0.76161623;10.322535;0.11978794;-0.20764267;-0.36506173;18.0;61.2;-37.5;348.31958;-7.0789876;-6.9676175;1017.6496;-;-;51.52443367;-0.13367646;0.8299999833106995
1530986103192;-;-;-1.0011182;0.7711963;9.81;0.17358379;-0.2672975;-0.37837756;16.95;60.15;-38.25;348.71774;-7.0573;-6.884049;1017.6496;-;-;51.52443367;-0.13367646;0.8299999833106995
1530986103202;-;-;-1.0538087;1.0490186;9.110655;0.20980278;-0.31257126;-0.3826386;16.95;60.15;-38.25;348.71774;-7.0573;-6.884049;1017.6496;-;-;51.52443367;-0.13367646;0.8299999833106995
1530986103213;-;-;-1.1735597;1.0585986;8.602911;0.20287856;-0.32961547;-0.37145332;16.650002;59.550003;-37.800003;349.1806;-7.1749735;-6.6711407;1017.6496;-;-;51.52443367;-0.13367646;0.8299999833106995
1530986103222;-;-;-1.2358302;1.2885206;7.917935;0.0910258;-0.3866071;-0.32404906;16.650002;59.550003;-37.800003;349.1806;-7.1749735;-6.6711407;1017.6496;-;-;51.52443367;-0.13367646;0.8299999833106995
1530986103232;-;-;-1.3172607;1.5471827;7.793394;-0.019229075;-0.44572932;-0.28143847;17.7;60.15;-39.0;349.66107;-7.3506117;-6.365772;1017.6496;-;-;51.52443367;-0.13367646;0.8299999833106995
1530986103242;-;-;-1.2549903;1.7244141;7.7694435;-0.20192194;-0.5282873;-0.21432681;17.7;60.15;-39.0;349.66107;-7.3506117;-6.365772;1017.6496;-;-;51.52443367;-0.13367646;0.8299999833106995
1530986103253;-;-;-1.2166699;1.7914747;8.032896;-0.32655787;-0.573561;-0.15733516;18.150002;60.300003;-39.300003;350.07385;-7.359664;-5.947005;1017.6496;-;-;51.52443367;-0.13367646;0.8299999833106995
1530986103263;-;-;-1.22146;1.6525636;8.353828;-0.3867453;-0.59539896;-0.10566983;18.150002;60.300003;-39.300003;350.07385;-7.359664;-5.947005;1017.6496;-;-;51.52443367;-0.13367646;0.8299999833106995
1530986103273;-;-;-0.9915381;1.5376027;8.646021;-0.4511938;-0.5943337;-0.041753963;16.5;61.050003;-38.100002;350.3783;-7.0616984;-5.3608923;1017.6463;-;-;51.52443367;-0.13367646;0.8299999833106995
1530986103283;-;-;-0.9196875;1.3507911;9.062755;-0.47036856;-0.5831484;-0.015122353;16.5;61.050003;-38.100002;350.3783;-7.0616984;-5.3608923;1017.6463;-;-;51.52443367;-0.13367646;0.8299999833106995
1530986103295;-;-;-0.9627979;1.22625;9.445957;-0.42988852;-0.5469294;-0.016187618;15.900001;62.550003;-36.600002;350.5535;-6.5688367;-4.6936607;1017.6463;-;-;51.52443367;-0.13367646;0.8299999833106995
1530986103305;-;-;-0.9053174;1.2981006;9.766891;-0.35904843;-0.50005776;-0.0050023412;15.900001;62.550003;-36.600002;350.5535;-6.5688367;-4.6936607;1017.6463;-;-;51.52443367;-0.13367646;0.8299999833106995
1530986103315;-;-;-0.852627;1.3795313;9.905801;-0.28021887;-0.45851249;0.024292432;14.700001;63.15;-39.600002;350.6467;-6.0407677;-4.044234;1017.6463;-;-;51.52443367;-0.13367646;0.8299999833106995
1530986103326;-;-;-0.7089258;1.3939015;9.79563;-0.18274717;-0.39406398;0.06690301;14.700001;63.15;-39.600002;350.6467;-6.0407677;-4.044234;1017.6463;-;-;51.52443367;-0.13367646;0.8299999833106995
1530986103336;-;-;-0.6322852;1.2645704;9.632769;-0.09219969;-0.31576705;0.09193672;14.85;60.9;-38.7;350.70062;-5.6329865;-3.477196;1017.6463;-;-;51.52443367;-0.13367646;0.8299999833106995
1530986103346;-;-;-0.51732427;1.1496094;9.465117;-0.012837488;-0.22202376;0.10844833;14.85;60.9;-38.7;350.70062;-5.6329865;-3.477196;1017.6463;-;-;51.52443367;-0.13367646;0.8299999833106995
1530986103356;-;-;-0.44547364;1.0202783;9.206455;0.045219425;-0.09259412;0.115372546;15.150001;62.7;-38.850002;350.66806;-5.4304814;-3.0307024;1017.6463;-;-;51.52443367;-0.13367646;0.8299999833106995
1530986103366;-;-;-0.5029541;0.9436377;9.144185;0.056937333;-0.019623505;0.11164412;15.150001;62.7;-38.850002;350.66806;-5.4304814;-3.0307024;1017.6463;-;-;51.52443367;-0.13367646;0.8299999833106995
1530986103377;-;-;-0.39278322;1.0298585;9.273516;0.030838355;0.05121658;0.113242015;14.250001;61.95;-38.25;350.5673;-5.4180717;-2.7792244;1017.6463;-;-;51.52443367;-0.13367646;0.8299999833106995
1530986103386;-;-;-0.37362307;1.1400293;9.364527;0.011663595;0.066662915;0.09886094;14.250001;61.95;-38.25;350.5673;-5.4180717;-2.7792244;1017.6463;-;-;51.52443367;-0.13367646;0.8299999833106995
1530986103396;-;-;-0.46463382;1.1304493;9.685459;-0.01337012;0.04375973;0.09246936;14.700001;62.4;-38.100002;350.43796;-5.4809976;-2.7386231;1017.6463;-;-;51.52443367;-0.13367646;0.8299999833106995
1530986103406;-;-;-0.43589357;1.1687696;9.833951;-0.036273308;0.012334428;0.07968618;14.700001;62.4;-38.100002;350.43796;-5.4809976;-2.7386231;1017.6463;-;-;51.52443367;-0.13367646;0.8299999833106995
1530986103417;-;-;-0.47900394;1.2454102;9.982442;-0.044795424;-0.040928796;0.068500906;15.150001;62.4;-37.65;350.31836;-5.4978037;-2.796302;1017.6463;-;-;51.52443367;-0.13367646;0.8299999833106995
1530986103428;-;-;-0.40715334;1.2645704;10.001602;-0.055448066;-0.083539374;0.06317458;15.150001;62.4;-37.65;350.31836;-5.4978037;-2.796302;1017.6463;-;-;51.52443367;-0.13367646;0.8299999833106995
1530986103437;-;-;-0.4167334;1.3699512;9.915381;-0.04373016;-0.10111623;0.048793513;15.150001;62.100002;-38.850002;350.22726;-5.464962;-2.7971804;1017.6463;-;-;51.52443367;-0.13367646;0.8299999833106995
1530986103447;-;-;-0.34009278;1.4513819;9.829161;-0.028816454;-0.067560405;0.043467194;14.55;61.95;-37.5;350.166;-5.412898;-2.7026317;1017.6463;-;-;51.52443367;-0.13367646;0.8299999833106995
1530986103458;-;-;-0.3544629;1.5950831;9.613608;-0.034675412;-0.030808782;0.040804032;14.55;61.95;-37.5;350.166;-5.412898;-2.7026317;1017.6463;-;-;51.52443367;-0.13367646;0.8299999833106995
1530986103469;-;-;-0.32093263;1.6142433;9.546548;-0.028283821;-0.015362448;0.043999825;13.500001;61.95;-39.0;350.12515;-5.3792686;-2.609996;1017.6355;-;-;51.52443367;-0.13367646;0.8299999833106995
1530986103479;-;-;-0.22992188;1.6429834;9.618399;-0.045328055;0.07305451;0.040271398;13.500001;61.95;-39.0;350.12515;-5.3792686;-2.609996;1017.6355;-;-;51.52443367;-0.13367646;0.8299999833106995
1530986103490;-;-;-0.32093263;1.6238233;9.69504;-0.04159963;0.10394717;0.031749282;12.150001;61.2;-38.25;350.07678;-5.3546643;-2.6029816;1017.6355;-;-;51.52443367;-0.13367646;0.8299999833106995
1530986103499;-;-;-0.2778223;1.6860938;10.011182;-0.050654378;0.15348198;0.032814547;12.150001;61.2;-38.25;350.07678;-5.3546643;-2.6029816;1017.6355;-;-;51.52443367;-0.13367646;0.8299999833106995
1530986103509;-;-;-0.16765137;1.6669337;10.145303;-0.05331754;0.16040619;0.023227166;13.500001;61.95;-38.7;350.02255;-5.316544;-2.709793;1017.6355;-;-;51.52443367;-0.13367646;0.8299999833106995
1530986103520;-;-;-0.29698244;1.7339942;10.442286;-0.031479616;0.16573252;0.0061829356;13.500001;61.95;-38.7;350.02255;-5.316544;-2.709793;1017.6355;-;-;51.52443367;-0.13367646;0.8299999833106995
1530986103531;-;-;-0.25387207;1.6908839;10.662627;-5.4314354E-5;0.17904831;-0.0018065477;14.400001;61.350002;-38.850002;349.97333;-5.2613525;-2.8869731;1017.6355;-;-;51.52443367;-0.13367646;0.8299999833106995
1530986103540;-;-;-0.3305127;1.710044;10.811119;0.06918788;0.19183148;-0.03110132;14.400001;61.350002;-38.850002;349.97333;-5.2613525;-2.8869731;1017.6355;-;-;51.52443367;-0.13367646;0.8299999833106995
1530986103551;-;-;-0.488584;1.7292042;10.8925495;0.14375637;0.1854399;-0.048678182;14.85;63.000004;-39.0;349.95654;-5.2530923;-3.0889263;1017.6355;-;-;51.52443367;-0.13367646;0.8299999833106995
1530986103561;-;-;-0.5987549;1.7627344;10.859019;0.20607436;0.16253673;-0.05986346;14.85;63.000004;-39.0;349.95654;-5.2530923;-3.0889263;1017.63983;-;-;51.52443367;-0.13367646;0.8299999833106995
1530986103571;-;-;-0.6562354;1.9208057;10.772799;0.2907629;0.19129886;-0.061461356;14.400001;62.100002;-39.600002;349.97885;-5.361761;-3.3041866;1017.63983;-;-;51.52443367;-0.13367646;0.8299999833106995
1530986103581;-;-;-0.8143067;2.0405567;10.648257;0.38397354;0.22591995;-0.06252662;14.400001;62.100002;-39.600002;349.97885;-5.361761;-3.3041866;1017.63983;-;-;51.52443367;-0.13367646;0.8299999833106995
1530986103592;-;-;-0.7759864;1.9687061;10.451866;0.4596073;0.25148627;-0.07104874;14.85;62.550003;-37.5;350.03156;-5.634012;-3.5166762;1017.63983;-;-;51.52443367;-0.13367646;0.8299999833106995
1530986103601;-;-;-0.7185059;2.0166066;10.269844;0.56240535;0.34522957;-0.0753098;14.85;62.550003;-37.5;350.03156;-5.634012;-3.5166762;1017.63983;-;-;51.52443367;-0.13367646;0.8299999833106995
1530986103611;-;-;-0.90052736;1.9830762;10.145303;0.6678665;0.47359392;-0.08223401;14.85;61.500004;-38.25;350.08185;-6.10452;-3.791046;1017.63983;-;-;51.52443367;-0.13367646;0.8299999833106995
1530986103621;-;-;-1.3124708;1.7579445;9.77647;0.77918667;0.7020931;-0.07637506;14.85;61.500004;-38.25;350.08185;-6.10452;-3.791046;1017.63983;-;-;51.52443367;-0.13367646;0.8299999833106995
1530986103632;-;-;-1.7148341;1.5519727;9.359736;0.83671093;0.9742682;-0.02630763;13.650001;60.750004;-39.300003;350.1168;-6.7885942;-4.250646;1017.63983;-;-;51.52443367;-0.13367646;0.8299999833106995
1530986103642;-;-;-1.9974464;1.6142433;9.206455;0.794633;1.2017022;0.061044056;13.650001;60.750004;-39.300003;350.1168;-6.7885942;-4.250646;1017.63983;-;-;51.52443367;-0.13367646;0.8299999833106995
1530986103653;-;-;-1.9926564;1.8441651;9.364527;0.67958444;1.3433824;0.16224419;15.750001;60.750004;-38.4;350.05707;-7.7130265;-5.1872425;1017.63983;-;-;51.52443367;-0.13367646;0.8299999833106995
1530986103663;-;-;-1.8489552;1.8345851;9.953702;0.48357576;1.3305992;0.26237902;15.750001;60.750004;-38.4;350.05707;-7.7130265;-5.1872425;1017.64105;-;-;51.52443367;-0.13367646;0.8299999833106995
1530986103673;-;-;-1.9016455;1.5280225;10.360855;0.345624;1.1969086;0.32416436;15.900001;60.15;-38.25;349.73383;-8.627498;-6.662966;1017.64105;-;-;51.52443367;-0.13367646;0.8299999833106995
1530986103683;-;-;-1.8633252;1.0681788;10.739268;0.21619436;0.983323;0.38009074;15.900001;60.15;-38.25;349.73383;-8.627498;-6.662966;1017.64105;-;-;51.52443367;-0.13367646;0.8299999833106995
1530986103694;-;-;-1.7339942;0.68976563;10.854229;0.1059395;0.71434367;0.41364658;18.300001;58.500004;-39.9;349.1943;-9.236779;-8.089042;1017.64105;-;-;51.52443367;-0.13367646;0.8299999833106995
1530986103704;-;-;-1.5328126;0.45026368;10.835069;0.013794124;0.39423174;0.40352657;18.300001;58.500004;-39.9;349.1943;-9.236779;-8.089042;1017.64105;-;-;51.52443367;-0.13367646;0.8299999833106995
1530986103715;-;-;-1.2789404;0.37362307;10.557246;-0.06077439;0.11779561;0.3465349;18.75;59.100002;-38.25;348.57968;-9.556489;-9.077852;1017.64105;-;-;51.52443367;-0.13367646;0.8299999833106995
1530986103725;-;-;-1.3747413;0.4023633;10.226734;-0.120429195;-0.07927831;0.3049896;18.75;59.100002;-38.25;348.57968;-9.556489;-9.077852;1017.64105;-;-;51.52443367;-0.13367646;0.8299999833106995
1530986103735;-;-;-1.21188;0.4023633;9.642349;-0.21044405;-0.19113109;0.27090114;17.85;58.65;-38.100002;348.06894;-9.640721;-9.398935;1017.64105;-;-;51.52443367;-0.13367646;0.8299999833106995
1530986103745;-;-;-1.1735597;0.40715334;9.465117;-0.25092408;-0.1863374;0.2719664;17.85;58.65;-38.100002;348.06894;-9.640721;-9.398935;1017.64105;-;-;51.52443367;-0.13367646;0.8299999833106995
1530986103756;-;-;-1.0298585;0.34967285;9.532178;-0.30791575;-0.07927831;0.24373691;20.1;59.550003;-37.800003;347.76886;-9.374912;-9.195696;1017.64105;-;-;51.52443367;-0.13367646;0.8299999833106995
1530986103766;-;-;-0.9963282;0.3879932;9.800421;-0.31483996;0.010203899;0.21231161;18.6;59.4;-38.850002;347.51138;-9.038479;-8.940552;1017.6378;-;-;51.52443367;-0.13367646;0.8299999833106995
1530986103777;-;-;-1.2406201;0.3544629;10.485396;-0.25571778;0.10341454;0.16863577;18.6;59.4;-38.850002;347.51138;-9.038479;-8.940552;1017.6378;-;-;51.52443367;-0.13367646;0.8299999833106995
1530986103787;-;-;-1.456172;0.4406836;10.662627;-0.2029872;0.15028618;0.16277681;19.050001;58.800003;-37.5;347.30167;-8.543379;-8.8445425;1017.6378;-;-;51.52443367;-0.13367646;0.8299999833106995
1530986103797;-;-;-1.6908839;0.45984375;10.624307;-0.07835125;0.19396202;0.16810313;19.050001;58.800003;-37.5;347.30167;-8.543379;-8.8445425;1017.6378;-;-;51.52443367;-0.13367646;0.8299999833106995
1530986103807;-;-;-1.7483643;0.45505372;10.547667;-0.06024176;0.19342938;0.17502736;19.2;59.7;-38.4;347.09082;-8.363856;-8.9968815;1017.6378;-;-;51.52443367;-0.13367646;0.8299999833106995
1530986103818;-;-;-1.8537452;0.56522465;10.111773;-0.074622825;0.11619771;0.20858318;19.2;59.7;-38.4;347.09082;-8.363856;-8.9968815;1017.6378;-;-;51.52443367;-0.13367646;0.8299999833106995
1530986103828;-;-;-1.9303858;0.5412744;9.83874;-0.13054922;0.05920606;0.2352148;20.550001;58.95;-37.65;346.8534;-8.328911;-9.170213;1017.6378;-;-;51.52443367;-0.13367646;0.8299999833106995
1530986103838;-;-;-1.7771046;0.5029541;9.70941;-0.27329463;-0.042526692;0.26823798;20.550001;58.95;-37.65;346.8534;-8.328911;-9.170213;1017.6378;-;-;51.52443367;-0.13367646;0.8299999833106995
1530986103849;-;-;-1.710044;0.5412744;9.82437;-0.34999368;-0.08140884;0.2751622;20.25;60.300003;-36.0;346.57956;-8.205746;-9.208989;1017.6378;-;-;51.52443367;-0.13367646;0.8299999833106995
1530986103859;-;-;-1.6429834;0.43589357;9.977652;-0.43681273;-0.16077104;0.28741273;20.25;60.300003;-36.0;346.57956;-8.205746;-9.208989;1017.6378;-;-;51.52443367;-0.13367646;0.8299999833106995
1530986103869;-;-;-1.5040723;0.37362307;10.312955;-0.4565201;-0.1996532;0.28421694;19.800001;59.550003;-37.5;346.28082;-7.8479896;-9.072964;1017.63184;-;-;51.52443367;-0.13367646;0.8299999833106995
1530986103880;-;-;-1.22625;0.34967285;10.365645;-0.43574747;-0.2262848;0.26024848;19.800001;59.550003;-37.5;346.28082;-7.8479896;-9.072964;1017.63184;-;-;51.52443367;-0.13367646;0.8299999833106995
1530986103890;-;-;-1.1064991;0.36883304;10.365645;-0.40219164;-0.23747009;0.21657267;19.800001;59.550003;-38.7;345.984;-7.3782344;-8.818337;1017.63184;-;-;51.52443367;-0.13367646;0.8299999833106995
1530986103900;-;-;-1.1064991;0.40715334;10.308165;-0.33827576;-0.25131854;0.15851575;19.800001;59.550003;-38.7;345.984;-7.3782344;-8.818337;1017.63184;-;-;51.52443367;-0.13367646;0.8299999833106995
1530986103911;-;-;-1.0873389;0.47900394;10.197993;-0.32442734;-0.25611222;0.1478631;19.5;60.000004;-37.65;345.7544;-6.938888;-8.520607;1017.63184;-;-;51.52443367;-0.13367646;0.8299999833106995
1530986103921;-;-;-1.0059083;0.6610254;9.7621;-0.24080409;-0.26676488;0.0898062;19.5;60.000004;-37.65;345.7544;-6.938888;-8.520607;1017.63184;-;-;51.52443367;-0.13367646;0.8299999833106995
1530986103931;-;-;-1.0490186;0.7232959;9.4507475;-0.22375986;-0.27209118;0.05731563;19.050001;61.500004;-38.25;345.6297;-6.595823;-8.207842;1017.63184;-;-;51.52443367;-0.13367646;0.8299999833106995
1530986103941;-;-;-0.9867481;0.7424561;9.2256155;-0.2179009;-0.2784828;0.023227166;19.050001;61.500004;-38.25;345.6297;-6.595823;-8.207842;1017.63184;-;-;51.52443367;-0.13367646;0.8299999833106995
1530986103951;-;-;-0.96758795;0.90052736;9.038804;-0.22375986;-0.28327647;-0.025242366;19.5;59.4;-36.75;345.58502;-6.333527;-7.886834;1017.63184;-;-;51.52443367;-0.13367646;0.8299999833106995
1530986103962;-;-;-1.1352394;1.0346485;9.077125;-0.2296188;-0.2838091;-0.06678768;19.5;59.4;-36.75;345.58502;-6.333527;-7.886834;1017.63837;-;-;51.52443367;-0.13367646;0.8299999833106995
1530986103972;-;-;-1.1256592;1.101709;8.947793;-0.22269459;-0.27901542;-0.08542981;19.95;60.000004;-38.100002;345.6256;-6.0708437;-7.56476;1017.63837;-;-;51.52443367;-0.13367646;0.8299999833106995
1530986103982;-;-;-1.22625;1.3843213;8.856783;-0.20511773;-0.24119851;-0.11525721;19.95;60.000004;-38.100002;345.6256;-6.0708437;-7.56476;1017.63837;-;-;51.52443367;-0.13367646;0.8299999833106995
1530986103993;-;-;-1.22625;1.4178516;8.756192;-0.20085667;-0.21723007;-0.10833299;18.900002;60.000004;-37.2;345.75177;-5.7983265;-7.257261;1017.63837;-;-;51.52443367;-0.13367646;0.8299999833106995
1530986104002;-;-;-1.22625;1.4944923;8.847202;-0.18114927;-0.16183631;-0.12431196;18.900002;60.000004;-37.2;345.75177;-5.7983265;-7.257261;1017.63837;-;-;51.52443367;-0.13367646;0.8299999833106995
1530986104012;-;-;-1.22146;1.4992822;8.904683;-0.16943137;-0.11656257;-0.13389935;18.300001;61.2;-39.0;345.90857;-5.541143;-7.005609;1017.63837;-;-;51.52443367;-0.13367646;0.8299999833106995
1530986104022;-;-;-1.2885206;1.4513819;9.0004835;-0.15984398;-0.08886569;-0.13389935;18.300001;61.2;-39.0;345.90857;-5.541143;-7.005609;1017.63837;-;-;51.52443367;-0.13367646;0.8299999833106995
1530986104033;-;-;-1.2645704;1.4178516;8.890313;-0.16037662;-0.060103558;-0.1365625;19.2;61.800003;-36.45;346.0716;-5.31296;-6.845289;1017.63837;-;-;51.52443367;-0.13367646;0.8299999833106995
1530986104042;-;-;-1.2933106;1.6190332;8.674761;-0.19180192;-0.019623505;-0.13283408;19.2;61.800003;-36.45;346.0716;-5.31296;-6.845289;1017.63837;-;-;51.52443367;-0.13367646;0.8299999833106995
1530986104053;-;-;-1.22146;1.6381935;8.866363;-0.22642301;0.0091386335;-0.11632247;18.6;61.050003;-36.0;346.23505;-5.1059284;-6.7714605;1017.63837;-;-;51.52443367;-0.13367646;0.8299999833106995
1530986104063;-;-;-1.2454102;1.5423926;9.024434;-0.25891358;-0.013231919;-0.09661508;18.6;61.050003;-36.0;346.23505;-5.1059284;-6.7714605;1017.6427;-;-;51.52443367;-0.13367646;0.8299999833106995
1530986104073;-;-;-1.1735597;1.4513819;9.187295;-0.30258942;-0.022286667;-0.09714772;16.650002;61.500004;-37.050003;346.3814;-4.854898;-6.7692866;1017.6427;-;-;51.52443367;-0.13367646;0.8299999833106995
1530986104083;-;-;-1.1783496;1.3795313;9.613608;-0.30312204;-0.014829816;-0.10939826;16.650002;61.500004;-37.050003;346.3814;-4.854898;-6.7692866;1017.6427;-;-;51.52443367;-0.13367646;0.8299999833106995
1530986104094;-;-;-1.2022998;1.2981006;9.7621;-0.282882;-0.01589508;-0.11685511;18.300001;61.2;-39.0;346.49603;-4.5214543;-6.7562895;1017.6427;-;-;51.52443367;-0.13367646;0.8299999833106995
1530986104104;-;-;-1.2406201;1.2406201;10.236314;-0.14706081;-0.0020439238;-0.15626706;18.300001;61.2;-39.0;346.49603;-4.5214543;-6.7562895;1017.6427;-;-;51.52443367;-0.13367646;0.8299999833106995
1530986104114;-;-;-1.22625;1.1783496;10.174044;-0.0692965;-0.012163936;-0.17917025;18.150002;62.4;-36.75;346.63596;-4.191929;-6.7469687;1017.6427;-;-;51.52443367;-0.13367646;0.8299999833106995
1530986104124;-;-;-1.2693604;1.2406201;10.154883;0.005272008;-0.057437677;-0.20526923;18.150002;62.4;-36.75;346.63596;-4.191929;-6.7469687;1017.6427;-;-;51.52443367;-0.13367646;0.8299999833106995
1530986104134;-;-;-1.2885206;1.4418018;10.063872;0.032968882;-0.16502939;-0.21698713;16.35;63.000004;-38.7;346.82358;-4.0253634;-6.753901;1017.6427;-;-;51.52443367;-0.13367646;0.8299999833106995
1530986104145;-;-;-1.2502003;1.4753321;9.872271;0.016457284;-0.25397897;-0.22604188;16.35;63.000004;-38.7;346.82358;-4.0253634;-6.753901;1017.6427;-;-;51.52443367;-0.13367646;0.8299999833106995
1530986104155;-;-;-1.2693604;1.5184424;9.608819;-0.02988172;-0.37009278;-0.2164545;16.800001;62.100002;-37.2;347.0671;-4.005782;-6.6738806;1017.6427;-;-;51.52443367;-0.13367646;0.8299999833106995
1530986104165;-;-;-1.22625;1.4992822;9.541759;-0.1039176;-0.48247817;-0.20473659;16.800001;62.100002;-37.2;347.0671;-4.005782;-6.6738806;1017.6443;-;-;51.52443367;-0.13367646;0.8299999833106995
1530986104175;-;-;-1.1352394;1.4465919;9.800421;-0.17742085;-0.55811197;-0.21858503;17.25;63.600002;-37.050003;347.34146;-3.9900725;-6.361398;1017.6443;-;-;51.52443367;-0.13367646;0.8299999833106995
1530986104186;-;-;-0.8861573;1.336421;10.020762;-0.18221454;-0.5602425;-0.23562926;17.25;63.600002;-37.050003;347.34146;-3.9900725;-6.361398;1017.6443;-;-;51.52443367;-0.13367646;0.8299999833106995
1530986104196;-;-;-1.0633887;1.3843213;10.312955;-0.13534291;-0.5202951;-0.2659893;17.1;62.7;-37.2;347.61807;-3.8482432;-5.8100495;1017.6443;-;-;51.52443367;-0.13367646;0.8299999833106995
1530986104206;-;-;-1.101709;1.2741505;10.667418;-0.030414352;-0.40098545;-0.2888925;17.7;61.500004;-37.050003;347.9311;-3.6229157;-5.19203;1017.6443;-;-;51.52443367;-0.13367646;0.8299999833106995
1530986104217;-;-;-1.2981006;1.3124708;10.854229;0.04415416;-0.3290801;-0.29954514;17.7;61.500004;-37.050003;347.9311;-3.6229157;-5.19203;1017.6443;-;-;51.52443367;-0.13367646;0.8299999833106995
1530986104228;-;-;-1.5280225;1.4178516;11.06978;0.2614681;-0.07341664;-0.30114305;17.1;61.800003;-36.75;348.28934;-3.5721705;-4.7729187;1017.6443;-;-;51.52443367;-0.13367646;0.8299999833106995
1530986104238;-;-;-1.8633252;1.4274317;11.064991;0.44842204;0.08530776;-0.25640193;17.1;61.800003;-36.75;348.28934;-3.5721705;-4.7729187;1017.6443;-;-;51.52443367;-0.13367646;0.8299999833106995
1530986104247;-;-;-1.9351759;1.4130616;10.94045;0.4990221;0.1188636;-0.24361874;17.1;61.800003;-36.75;348.28934;-3.5721705;-4.7729187;1017.6443;-;-;51.52443367;-0.13367646;0.8299999833106995
1530986104258;-;-;-1.8776954;1.3028907;10.590776;0.5767864;0.091699354;-0.19568184;15.450001;63.15;-37.2;348.63013;-3.8535562;-4.7158637;1017.6443;-;-;51.52443367;-0.13367646;0.8299999833106995
1530986104269;-;-;-1.8681153;1.2933106;10.389595;0.58264536;0.031511907;-0.19781238;16.95;61.2;-36.600002;348.88693;-4.424993;-4.861617;1017.6476;-;-;51.52443367;-0.13367646;0.8299999833106995
1530986104280;-;-;-1.9687061;1.2693604;10.255474;0.59383065;-0.022283949;-0.20207344;16.95;61.2;-36.600002;348.88693;-4.424993;-4.861617;1017.6476;-;-;51.52443367;-0.13367646;0.8299999833106995
1530986104289;-;-;-2.0166066;1.3268409;9.910591;0.5964938;-0.059568204;-0.1866271;16.5;62.7;-36.45;349.1097;-5.0736194;-4.9274592;1017.6476;-;-;51.52443367;-0.13367646;0.8299999833106995
1530986104299;-;-;-2.0070264;1.5232325;9.263936;0.5000873;0.008076089;-0.13283125;16.5;62.7;-36.45;349.1097;-5.0736194;-4.9274592;1017.6476;-;-;51.52443367;-0.13367646;0.8299999833106995
1530986104309;-;-;-2.0070264;1.5088624;9.235196;0.46386838;0.014467676;-0.11898281;16.35;61.95;-36.600002;349.1097;-5.0736194;-4.9274592;1017.6476;-;-;51.52443367;-0.13367646;0.8299999833106995
1530986104320;-;-;-1.9303858;1.2693604;9.465117;0.19116065;0.33457965;-0.063056424;16.35;61.95;-36.600002;349.31516;-5.8480153;-5.211289;1017.6476;-;-;51.52443367;-0.13367646;0.8299999833106995
1530986104330;-;-;-1.9926564;1.1304493;10.461446;0.10114581;0.5167399;-0.048675355;15.450001;62.4;-36.75;349.42062;-6.3968105;-5.5025325;1017.6476;-;-;51.52443367;-0.13367646;0.8299999833106995
1530986104339;-;-;-2.059717;0.977168;11.213482;0.042556264;0.7436412;-0.028967964;15.450001;62.4;-36.75;349.42062;-6.3968105;-5.5025325;1017.6476;-;-;51.52443367;-0.13367646;0.8299999833106995
1530986104350;-;-;-2.0309765;0.9148975;11.999048;0.06545945;0.9503025;-0.0071300417;15.450001;62.4;-36.75;349.42062;-6.3968105;-5.5025325;1017.6476;-;-;51.52443367;-0.13367646;0.8299999833106995
1530986104360;-;-;-2.0166066;0.7041358;12.851675;0.14482164;1.1574963;0.0120447185;15.750001;60.750004;-39.300003;349.41647;-6.5472684;-6.068076;1017.6476;-;-;51.52443367;-0.13367646;0.8299999833106995
1530986104370;-;-;-2.0261867;0.60354495;13.306729;0.28490394;1.2650881;0.02695842;16.650002;60.600002;-39.0;349.3064;-6.634613;-7.110838;1017.64465;-;-;51.52443367;-0.13367646;0.8299999833106995
1530986104380;-;-;-2.184258;0.48379397;13.560601;0.50807685;1.2368586;0.03441527;16.650002;60.600002;-39.0;349.3064;-6.634613;-7.110838;1017.64465;-;-;51.52443367;-0.13367646;0.8299999833106995
1530986104391;-;-;-2.2465284;0.45984375;13.268409;0.7008897;1.0339257;0.04080686;16.5;61.050003;-37.2;349.1094;-6.9662075;-8.516984;1017.64465;-;-;51.52443367;-0.13367646;0.8299999833106995
1530986104401;-;-;-2.2656887;0.4742139;12.310401;0.7839803;0.7708055;0.04826371;16.5;61.050003;-37.2;349.1094;-6.9662075;-8.516984;1017.64465;-;-;51.52443367;-0.13367646;0.8299999833106995
1530986104411;-;-;-2.1028273;0.63707525;11.189531;0.7536203;0.45708507;0.0711669;18.0;59.850002;-36.600002;348.89615;-7.692123;-9.81018;1017.64465;-;-;51.52443367;-0.13367646;0.8299999833106995
1530986104422;-;-;-1.9160157;0.8334668;9.77168;0.6103422;0.18384472;0.11431011;18.0;59.850002;-36.600002;348.89615;-7.692123;-9.81018;1017.64465;-;-;51.52443367;-0.13367646;0.8299999833106995
1530986104432;-;-;-1.5232325;0.7232959;8.56938;0.37811458;-0.047317665;0.1606491;20.25;58.65;-37.65;348.72134;-8.603816;-10.544211;1017.64465;-;-;51.52443367;-0.13367646;0.8299999833106995
1530986104442;-;-;-1.1543995;0.5843848;7.9227247;0.07930789;-0.25504422;0.18568283;20.25;58.65;-37.65;348.72134;-8.603816;-10.544211;1017.64465;-;-;51.52443367;-0.13367646;0.8299999833106995
1530986104451;-;-;-0.8334668;0.5364844;7.7598634;-0.21310721;-0.3999202;0.17716071;19.35;58.500004;-36.600002;348.54938;-9.230816;-10.636285;1017.64465;-;-;51.52443367;-0.13367646;0.8299999833106995
1530986104461;-;-;-0.71371585;0.57001466;7.975415;-0.37769055;-0.44732445;0.16171438;19.35;58.500004;-36.600002;348.54938;-9.230816;-10.636285;1017.64465;-;-;51.52443367;-0.13367646;0.8299999833106995
1530986104471;-;-;-0.5891748;0.6179151;8.617281;-0.5209686;-0.40151808;0.14200698;18.6;59.4;-36.75;348.40063;-9.226604;-10.258363;1017.64465;-;-;51.52443367;-0.13367646;0.8299999833106995
1530986104482;-;-;-0.7232959;0.57959473;9.129815;-0.51297915;-0.3253517;0.14680068;18.6;59.4;-36.75;348.40063;-9.226604;-10.258363;1017.64465;-;-;51.52443367;-0.13367646;0.8299999833106995
1530986104492;-;-;-0.7185059;0.5939649;9.599238;-0.44373694;-0.26409897;0.1718344;20.1;58.800003;-37.800003;348.30566;-8.72271;-9.751829;1017.64465;-;-;51.52443367;-0.13367646;0.8299999833106995
1530986104502;-;-;-0.43110353;0.5460645;9.651929;-0.36757055;-0.2198905;0.18142177;20.1;58.800003;-37.800003;348.30566;-8.72271;-9.751829;1017.64465;-;-;51.52443367;-0.13367646;0.8299999833106995
1530986104512;-;-;-0.3065625;0.46463382;9.651929;-0.3009915;-0.19592206;0.15585542;20.400002;58.050003;-37.5;348.18796;-8.13342;-9.319694;1017.64465;-;-;51.52443367;-0.13367646;0.8299999833106995
1530986104523;-;-;-0.09101075;0.41194338;9.608819;-0.25678304;-0.17142098;0.108983785;20.400002;58.050003;-37.5;348.18796;-8.13342;-9.319694;1017.64465;-;-;51.52443367;-0.13367646;0.8299999833106995
1530986104532;-;-;-0.11496094;0.34009278;9.575289;-0.22429249;-0.145322;0.051992137;20.25;59.7;-36.45;348.1126;-7.2164454;-8.331642;1017.64465;-;-;51.52443367;-0.13367646;0.8299999833106995
1530986104542;-;-;-0.25866213;0.3065625;9.522598;-0.21150932;-0.12827776;0.014175247;20.25;59.7;-36.45;348.1126;-7.2164454;-8.331642;1017.64465;-;-;51.52443367;-0.13367646;0.8299999833106995
1530986104553;-;-;-0.35925296;0.244292;9.460327;-0.2194988;-0.11762512;-0.019913215;18.900002;58.95;-36.45;348.09265;-6.554698;-7.5643506;1017.64465;-;-;51.52443367;-0.13367646;0.8299999833106995
1530986104563;-;-;-0.43110353;0.25866213;9.565708;-0.23973882;-0.1336041;-0.040685873;18.900002;58.95;-36.45;348.09265;-6.554698;-7.5643506;1017.6476;-;-;51.52443367;-0.13367646;0.8299999833106995
1530986104573;-;-;-0.613125;0.45505372;9.881851;-0.27063146;-0.21882525;-0.060925897;17.7;59.850002;-36.15;348.11816;-6.2265472;-7.3195763;1017.6476;-;-;51.52443367;-0.13367646;0.8299999833106995
1530986104583;-;-;-0.68976563;0.5412744;10.188414;-0.26317462;-0.26836002;-0.07370907;17.7;59.850002;-36.15;348.11816;-6.2265472;-7.3195763;1017.6476;-;-;51.52443367;-0.13367646;0.8299999833106995
1530986104594;-;-;-0.6322852;0.51732427;10.221944;-0.20831352;-0.35837486;-0.075839594;18.75;60.9;-36.600002;348.1978;-5.900037;-7.1116014;1017.6476;-;-;51.52443367;-0.13367646;0.8299999833106995
1530986104604;-;-;-0.6227051;0.5125342;10.063872;-0.15558293;-0.3924657;-0.08755998;18.75;60.9;-36.600002;348.1978;-5.900037;-7.1116014;1017.6476;-;-;51.52443367;-0.13367646;0.8299999833106995
1530986104614;-;-;-0.6993457;0.5604346;9.77168;-0.06876387;-0.43880472;-0.10140842;19.5;60.000004;-37.2;348.31448;-5.6063266;-6.7785463;1017.6476;-;-;51.52443367;-0.13367646;0.8299999833106995
1530986104624;-;-;-0.8669971;0.62749517;9.445957;-0.028816454;-0.45744684;-0.10833264;17.550001;60.750004;-36.0;348.46515;-5.4437084;-6.324232;1017.6476;-;-;51.52443367;-0.13367646;0.8299999833106995
1530986104636;-;-;-0.97237796;0.92926764;9.0004835;0.007935169;-0.4467942;-0.097679995;17.550001;60.750004;-36.0;348.46515;-5.4437084;-6.324232;1017.6476;-;-;51.52443367;-0.13367646;0.8299999833106995
1530986104645;-;-;-1.0394385;0.977168;8.842413;0.007402537;-0.4451963;-0.082766294;16.5;61.050003;-37.2;348.63577;-5.4053125;-5.8117466;1017.6476;-;-;51.52443367;-0.13367646;0.8299999833106995
1530986104655;-;-;-1.1448194;1.1208692;8.4448395;-0.005913269;-0.39938995;-0.041220978;16.5;61.050003;-37.2;348.63577;-5.4053125;-5.8117466;1017.6476;-;-;51.52443367;-0.13367646;0.8299999833106995
1530986104666;-;-;-1.2358302;1.1256592;8.440049;-0.023490133;-0.38181308;-0.008730413;18.75;59.850002;-37.5;348.63577;-5.4053125;-5.8117466;1017.6458;-;-;51.52443367;-0.13367646;0.8299999833106995
1530986104676;-;-;-1.1160791;1.1735597;8.205338;-0.072492294;-0.25025293;0.08288233;18.75;59.850002;-37.5;348.76807;-5.3939657;-5.323728;1017.6458;-;-;51.52443367;-0.13367646;0.8299999833106995
1530986104686;-;-;-1.0106983;1.1927198;8.320298;-0.119363934;-0.18207599;0.12602554;15.900001;60.9;-38.7;348.78738;-5.3506894;-4.926848;1017.6458;-;-;51.52443367;-0.13367646;0.8299999833106995
1530986104697;-;-;-0.8382569;1.0873389;8.847202;-0.15398504;-0.073951654;0.17502771;15.900001;60.9;-38.7;348.78738;-5.3506894;-4.926848;1017.6458;-;-;51.52443367;-0.13367646;0.8299999833106995
1530986104706;-;-;-0.8430469;0.9148975;9.254355;-0.1417345;-0.04199372;0.18035403;16.650002;60.9;-36.600002;348.6527;-5.2207236;-4.7225847;1017.6458;-;-;51.52443367;-0.13367646;0.8299999833106995
1530986104717;-;-;-0.63707525;0.87178713;9.618399;-0.057578597;-0.03027581;0.18408246;16.650002;60.9;-36.600002;348.6527;-5.2207236;-4.7225847;1017.6458;-;-;51.52443367;-0.13367646;0.8299999833106995
1530986104728;-;-;-0.5029541;0.78556645;9.872271;-0.02775119;-0.05424426;0.17449507;15.750001;61.800003;-37.65;348.4458;-5.0906463;-4.651689;1017.6458;-;-;51.52443367;-0.13367646;0.8299999833106995
1530986104738;-;-;-0.40715334;0.7951465;9.896221;0.030838355;-0.08566956;0.14413504;15.750001;61.800003;-37.65;348.4458;-5.0906463;-4.651689;1017.6458;-;-;51.52443367;-0.13367646;0.8299999833106995
1530986104748;-;-;-0.34009278;0.8813672;9.75731;0.055339437;-0.11549697;0.105252884;16.650002;61.500004;-37.800003;348.25375;-5.0733624;-4.574174;1017.6458;-;-;51.52443367;-0.13367646;0.8299999833106995
1530986104761;-;-;-0.3305127;1.0394385;9.455538;0.07984052;-0.120823294;0.05145703;16.650002;61.500004;-37.800003;348.25375;-5.0733624;-4.574174;1017.6443;-;-;51.52443367;-0.13367646;0.8299999833106995
1530986104769;-;-;-0.4263135;1.096919;9.263936;0.07398157;-0.099518;0.03228227;15.900001;61.2;-37.5;348.1367;-5.140901;-4.435855;1017.6443;-;-;51.52443367;-0.13367646;0.8299999833106995
1530986104779;-;-;-0.47900394;1.2310401;9.072334;0.040958364;-0.09632221;0.02802121;15.900001;61.2;-37.5;348.1367;-5.140901;-4.435855;1017.6443;-;-;51.52443367;-0.13367646;0.8299999833106995
1530986104789;-;-;-0.51732427;1.336421;9.0148535;-0.057578597;-0.105909586;0.03015174;15.6;61.2;-38.25;348.09637;-5.2336893;-4.3066587;1017.6443;-;-;51.52443367;-0.13367646;0.8299999833106995
1530986104799;-;-;-0.51732427;1.4992822;9.029224;-0.11510287;-0.097920105;0.016835935;15.6;61.2;-38.25;348.09637;-5.2336893;-4.3066587;1017.6443;-;-;51.52443367;-0.13367646;0.8299999833106995
1530986104810;-;-;-0.5460645;1.5519727;9.4507475;-0.17369242;-0.09898537;0.03760859;16.650002;61.2;-36.600002;348.07425;-5.219258;-4.192893;1017.6443;-;-;51.52443367;-0.13367646;0.8299999833106995
1530986104820;-;-;-0.613125;1.4753321;9.73815;-0.17742085;-0.09472431;0.04027175;16.650002;61.2;-36.600002;348.07425;-5.219258;-4.192893;1017.6443;-;-;51.52443367;-0.13367646;0.8299999833106995
1530986104831;-;-;-0.4981641;1.4801221;9.958491;-0.16037662;-0.08140851;0.040804386;16.050001;60.750004;-36.75;348.05185;-5.052506;-4.075799;1017.6443;-;-;51.52443367;-0.13367646;0.8299999833106995
1530986104840;-;-;-0.50774413;1.4465919;9.862691;-0.120429195;-0.07714745;0.05465282;16.050001;60.750004;-36.75;348.05185;-5.052506;-4.075799;1017.6443;-;-;51.52443367;-0.13367646;0.8299999833106995
1530986104851;-;-;-0.43110353;1.5663428;9.80521;-0.1039176;-0.043058984;0.048261236;16.650002;60.600002;-37.800003;348.01047;-4.8710914;-3.9688299;1017.6443;-;-;51.52443367;-0.13367646;0.8299999833106995
1530986104861;-;-;-0.42152345;1.695674;9.924961;-0.07355756;-0.00843789;0.04453281;16.650002;60.600002;-37.800003;348.01047;-4.8710914;-3.9688299;1017.6443;-;-;51.52443367;-0.13367646;0.8299999833106995
1530986104871;-;-;-0.5460645;1.6813037;10.039923;-0.043197528;0.01553056;0.056250717;16.800001;61.050003;-37.65;347.9632;-4.7493935;-3.897106;1017.6443;-;-;51.52443367;-0.13367646;0.8299999833106995
1530986104882;-;-;-0.7376661;1.6908839;10.174044;-0.020294338;0.04162954;0.07808863;16.800001;61.050003;-37.65;347.9632;-4.7493935;-3.897106;1017.6443;-;-;51.52443367;-0.13367646;0.8299999833106995
1530986104891;-;-;-0.7232959;1.7387843;10.150093;-0.020294338;0.065065354;0.10685078;16.650002;62.250004;-37.5;347.91278;-4.6845756;-3.8919282;1017.6443;-;-;51.52443367;-0.13367646;0.8299999833106995
1530986104901;-;-;-0.64186525;1.5615528;10.217154;-0.03893647;0.08051169;0.14520031;16.650002;62.250004;-37.5;347.91278;-4.6845756;-3.8919282;1017.6443;-;-;51.52443367;-0.13367646;0.8299999833106995
1530986104911;-;-;-0.6322852;1.5184424;10.250684;-0.08101441;0.08850118;0.16757086;15.6;63.000004;-37.050003;347.80466;-4.67148;-3.945232;1017.6443;-;-;51.52443367;-0.13367646;0.8299999833106995
1530986104922;-;-;-0.5460645;1.4944923;10.413546;-0.11670077;0.083174855;0.16650559;15.6;63.000004;-37.050003;347.80466;-4.67148;-3.945232;1017.6443;-;-;51.52443367;-0.13367646;0.8299999833106995
1530986104932;-;-;-0.5221143;1.2885206;10.605147;-0.13321237;0.075718;0.17662561;17.25;61.2;-37.050003;347.62344;-4.6193523;-4.024658;1017.6443;-;-;51.52443367;-0.13367646;0.8299999833106995
1530986104943;-;-;-0.5029541;1.1783496;10.715318;-0.13907133;0.06985904;0.16970138;16.650002;60.9;-36.600002;347.41562;-4.4987254;-4.103266;1017.6443;-;-;51.52443367;-0.13367646;0.8299999833106995
1530986104954;-;-;-0.47900394;0.97237796;10.98835;-0.12202709;0.03630322;0.1515919;16.650002;60.9;-36.600002;347.41562;-4.4987254;-4.103266;1017.6443;-;-;51.52443367;-0.13367646;0.8299999833106995
1530986104963;-;-;-0.45984375;0.91010743;11.132051;-0.081547044;0.03417269;0.12602554;16.650002;60.9;-36.600002;347.41562;-4.4987254;-4.103266;1017.65076;-;-;51.52443367;-0.13367646;0.8299999833106995
1530986104973;-;-;-0.49337405;0.732876;11.0123005;0.012728859;0.028313734;0.06690336;16.800001;62.100002;-36.75;347.22272;-4.363516;-4.1513042;1017.65076;-;-;51.52443367;-0.13367646;0.8299999833106995
1530986104983;-;-;-0.4263135;0.8286768;10.844649;0.070785776;0.035770588;0.025890682;15.900001;60.9;-37.800003;347.10876;-4.323236;-4.177416;1017.65076;-;-;51.52443367;-0.13367646;0.8299999833106995
1530986104994;-;-;-0.5364844;0.98195803;10.504556;0.15813746;0.030444263;-0.026839908;15.900001;60.9;-37.800003;347.10876;-4.323236;-4.177416;1017.65076;-;-;51.52443367;-0.13367646;0.8299999833106995
1530986105004;-;-;-0.56522465;1.1591895;10.159674;0.18796486;0.023520043;-0.055602048;16.35;60.15;-37.5;347.1074;-4.446038;-4.213463;1017.65076;-;-;51.52443367;-0.13367646;0.8299999833106995
1530986105014;-;-;-0.7711963;1.2789404;9.460327;0.19595434;0.037901115;-0.117920026;16.35;60.15;-37.5;347.1074;-4.446038;-4.213463;1017.65076;-;-;51.52443367;-0.13367646;0.8299999833106995
1530986105025;-;-;-0.9148975;1.4226416;9.254355;0.16612694;0.07838116;-0.12697476;16.5;62.7;-36.75;347.19794;-4.66654;-4.2510576;1017.65076;-;-;51.52443367;-0.13367646;0.8299999833106995
1530986105035;-;-;-1.4753321;1.4370118;9.129815;0.09635212;0.18171182;-0.1125937;16.5;62.7;-36.75;347.19794;-4.66654;-4.2510576;1017.65076;-;-;51.52443367;-0.13367646;0.8299999833106995
1530986105046;-;-;-1.8345851;1.3507911;8.933423;0.003141479;0.28291196;-0.057199944;15.3;61.95;-36.600002;347.33118;-4.8286934;-4.381256;1017.65076;-;-;51.52443367;-0.13367646;0.8299999833106995
1530986105056;-;-;-2.0022364;1.4370118;8.933423;-0.13054922;0.3681331;0.024292786;15.3;61.95;-36.600002;347.33118;-4.8286934;-4.381256;1017.65076;-;-;51.52443367;-0.13367646;0.8299999833106995
1530986105066;-;-;-1.9830762;1.465752;9.3309965;-0.28234938;0.4144721;0.11430763;16.800001;61.350002;-36.75;347.35568;-4.8376184;-4.7371545;1017.65717;-;-;51.52443367;-0.13367646;0.8299999833106995
1530986105076;-;-;-1.7339942;1.2166699;10.001602;-0.4426717;0.37772048;0.22030145;16.800001;61.350002;-36.75;347.35568;-4.8376184;-4.7371545;1017.65717;-;-;51.52443367;-0.13367646;0.8299999833106995
1530986105087;-;-;-1.4705421;1.0729688;10.538086;-0.50605494;0.3265878;0.25705305;15.150001;62.7;-36.45;347.16165;-4.693298;-5.47131;1017.65717;-;-;51.52443367;-0.13367646;0.8299999833106995
1530986105097;-;-;-0.9627979;0.76161623;11.429033;-0.5140444;0.17479031;0.28581804;15.150001;62.7;-36.45;347.16165;-4.693298;-5.47131;1017.65717;-;-;51.52443367;-0.13367646;0.8299999833106995
1530986105107;-;-;-0.5843848;0.46463382;11.711646;-0.46291173;0.08104704;0.26344746;16.35;61.95;-36.15;346.83948;-4.1603155;-5.8081503;1017.65717;-;-;51.52443367;-0.13367646;0.8299999833106995
1530986105117;-;-;-0.119750984;0.13891114;11.692486;-0.31057888;-0.028675195;0.17716105;16.35;61.95;-36.15;346.83948;-4.1603155;-5.8081503;1017.65717;-;-;51.52443367;-0.13367646;0.8299999833106995
1530986105128;-;-;0.119750984;-0.05269043;11.635005;-0.16730084;-0.081938416;0.0637104;16.650002;61.95;-36.600002;346.53818;-3.6784358;-5.88349;1017.65717;-;-;51.52443367;-0.13367646;0.8299999833106995
1530986105138;-;-;-0.009580079;-0.09580079;11.361973;0.0015435823;-0.11229846;-0.06998029;16.650002;61.95;-36.600002;346.53818;-3.6784358;-5.88349;1017.65717;-;-;51.52443367;-0.13367646;0.8299999833106995
1530986105147;-;-;-0.39757326;0.25866213;10.820699;0.12191847;-0.10430897;-0.16532147;16.800001;63.15;-35.25;346.4484;-3.4712672;-5.795918;1017.65717;-;-;51.52443367;-0.13367646;0.8299999833106995
1530986105157;-;-;-0.9963282;0.5125342;10.154883;0.2593376;-0.017489918;-0.2484121;16.800001;63.15;-35.25;346.4484;-3.4712672;-5.795918;1017.65076;-;-;51.52443367;-0.13367646;0.8299999833106995
1530986105168;-;-;-1.4465919;0.7664063;9.70941;0.31686187;0.082112305;-0.26758686;17.550001;63.45;-36.45;346.63965;-3.5938644;-5.702449;1017.65076;-;-;51.52443367;-0.13367646;0.8299999833106995
1530986105178;-;-;-2.0549269;0.98195803;9.3309965;0.32005766;0.19343244;-0.23296577;17.550001;63.45;-36.45;346.63965;-3.5938644;-5.702449;1017.65076;-;-;51.52443367;-0.13367646;0.8299999833106995
1530986105188;-;-;-2.7973828;1.1639795;9.230406;0.28064287;0.34896106;-0.14188565;16.050001;61.350002;-36.0;346.93237;-3.9101815;-5.7970314;1017.65076;-;-;51.52443367;-0.13367646;0.8299999833106995
1530986105199;-;-;-3.4727786;1.1256592;9.565708;0.19648696;0.5263276;0.045600902;16.050001;61.350002;-36.0;346.93237;-3.9101815;-5.7970314;1017.65076;-;-;51.52443367;-0.13367646;0.8299999833106995
1530986105209;-;-;-3.5973196;0.9867481;9.944121;0.12458163;0.582254;0.21817374;16.95;61.95;-36.15;347.0464;-4.5117893;-7.2451158;1017.65076;-;-;51.52443367;-0.13367646;0.8299999833106995
1530986105219;-;-;-3.4009278;0.732876;10.566827;0.07344893;0.5465676;0.36837602;16.95;61.95;-36.15;347.0464;-4.5117893;-7.2451158;1017.65076;-;-;51.52443367;-0.13367646;0.8299999833106995
1530986105230;-;-;-3.032095;0.364043;10.782378;0.04948048;0.48105386;0.48821828;17.85;63.15;-35.550003;346.82565;-4.742357;-8.005155;1017.65076;-;-;51.52443367;-0.13367646;0.8299999833106995
1530986105240;-;-;-2.5099807;0.19160157;10.811119;0.043621525;0.3814516;0.57450473;17.85;63.15;-35.550003;346.82565;-4.742357;-8.005155;1017.65076;-;-;51.52443367;-0.13367646;0.8299999833106995
1530986105250;-;-;-2.078877;-0.028740235;10.648257;0.038827837;0.2472283;0.63149637;19.5;60.300003;-36.75;346.27066;-4.89236;-8.541658;1017.65076;-;-;51.52443367;-0.13367646;0.8299999833106995
1530986105260;-;-;-1.6621436;-0.18681154;10.202784;0.009000434;0.12578815;0.66718274;19.5;60.300003;-36.75;346.27066;-4.89236;-8.541658;1017.65717;-;-;51.52443367;-0.13367646;0.8299999833106995
1530986105271;-;-;-1.1831397;-0.34009278;9.69504;-0.069829136;-0.027609931;0.6858249;19.050001;61.500004;-36.15;345.54037;-5.0473495;-8.824419;1017.65717;-;-;51.52443367;-0.13367646;0.8299999833106995
1530986105281;-;-;-0.89573735;-0.39757326;9.402847;-0.1401366;-0.0931237;0.6773027;19.050001;61.500004;-36.15;345.54037;-5.0473495;-8.824419;1017.65717;-;-;51.52443367;-0.13367646;0.8299999833106995
1530986105292;-;-;-0.47900394;-0.488584;9.307046;-0.24133672;-0.17142063;0.6336269;19.35;61.2;-37.5;344.7729;-5.010891;-8.781328;1017.65717;-;-;51.52443367;-0.13367646;0.8299999833106995
1530986105302;-;-;-0.34488282;-0.4742139;9.316627;-0.29513255;-0.19698697;0.59953845;19.35;61.2;-37.5;344.7729;-5.010891;-8.781328;1017.65717;-;-;51.52443367;-0.13367646;0.8299999833106995
1530986105312;-;-;-0.22992188;-0.41194338;9.508228;-0.32975367;-0.23427124;0.50686044;20.25;61.350002;-35.550003;344.054;-4.743203;-8.487396;1017.65717;-;-;51.52443367;-0.13367646;0.8299999833106995
1530986105322;-;-;-0.17723145;-0.4023633;9.589659;-0.32495996;-0.24492387;0.4392161;19.800001;61.2;-35.4;343.46698;-4.300928;-8.039651;1017.65717;-;-;51.52443367;-0.13367646;0.8299999833106995
1530986105333;-;-;-0.5604346;-0.023950197;9.642349;-0.2461304;-0.25664178;0.3001991;19.800001;61.2;-35.4;343.46698;-4.300928;-8.039651;1017.65717;-;-;51.52443367;-0.13367646;0.8299999833106995
1530986105343;-;-;-0.6658155;0.17723145;9.560919;-0.21683563;-0.2630334;0.27516538;19.2;62.4;-36.75;343.09998;-3.6934416;-7.393235;1017.65717;-;-;51.52443367;-0.13367646;0.8299999833106995
1530986105353;-;-;-1.2693604;0.63707525;9.168135;-0.15132187;-0.23054281;0.20485793;19.2;62.4;-36.75;343.09998;-3.6934416;-7.393235;1017.65717;-;-;51.52443367;-0.13367646;0.8299999833106995
1530986105363;-;-;-1.5232325;0.8334668;9.010064;-0.14546292;-0.21775964;0.20965162;18.75;61.95;-35.850002;342.84692;-3.5099251;-7.092122;1017.6556;-;-;51.52443367;-0.13367646;0.8299999833106995
1530986105374;-;-;-1.6621436;1.0873389;8.923843;-0.17742085;-0.21083541;0.23308744;18.75;61.95;-35.850002;342.84692;-3.5099251;-7.092122;1017.6556;-;-;51.52443367;-0.13367646;0.8299999833106995
1530986105384;-;-;-1.6142433;1.0538087;8.919053;-0.20245457;-0.21935754;0.24693587;19.800001;61.500004;-37.5;342.6097;-3.3607411;-6.833877;1017.6556;-;-;51.52443367;-0.13367646;0.8299999833106995
1530986105393;-;-;-1.3268409;1.096919;9.115445;-0.26104409;-0.21083541;0.22350006;19.800001;61.500004;-37.5;342.6097;-3.3607411;-6.833877;1017.6556;-;-;51.52443367;-0.13367646;0.8299999833106995
1530986105403;-;-;-1.1304493;1.0346485;9.445957;-0.26317462;-0.18793224;0.18515053;19.050001;61.500004;-37.800003;342.3449;-3.1355648;-6.5722046;1017.6556;-;-;51.52443367;-0.13367646;0.8299999833106995
1530986105413;-;-;-1.0011182;0.9148975;10.087823;-0.19925877;-0.1724859;0.11431046;19.050001;61.500004;-37.800003;342.3449;-3.1355648;-6.5722046;1017.6556;-;-;51.52443367;-0.13367646;0.8299999833106995
1530986105424;-;-;-1.0585986;0.92926764;10.384805;-0.113504976;-0.13999534;0.063177764;18.900002;61.800003;-38.100002;342.16263;-2.8792124;-6.353254;1017.6556;-;-;51.52443367;-0.13367646;0.8299999833106995
1530986105434;-;-;-1.22625;0.8765772;10.571617;0.050013114;-0.1458543;0.007251382;18.900002;61.800003;-38.100002;342.16263;-2.8792124;-6.353254;1017.6556;-;-;51.52443367;-0.13367646;0.8299999833106995
1530986105444;-;-;-1.21188;0.9484278;10.317744;0.16772483;-0.19325855;-0.050272897;18.6;61.800003;-35.550003;342.11343;-2.8137352;-6.188094;1017.6556;-;-;51.52443367;-0.13367646;0.8299999833106995
1530986105455;-;-;-1.2310401;1.0873389;9.862691;0.22897753;-0.22095543;-0.11046034;18.6;61.800003;-35.550003;342.11343;-2.8137352;-6.188094;1017.6556;-;-;51.52443367;-0.13367646;0.8299999833106995
1530986105466;-;-;-1.3507911;1.2789404;9.398057;0.24868493;-0.23480387;-0.15892988;16.800001;62.4;-37.65;342.1966;-2.9970934;-5.9730444;1017.6659;-;-;51.52443367;-0.13367646;0.8299999833106995
1530986105475;-;-;-1.4753321;1.4082716;9.062755;0.23909755;-0.23107544;-0.18343097;16.800001;62.4;-37.65;342.1966;-2.9970934;-5.9730444;1017.6659;-;-;51.52443367;-0.13367646;0.8299999833106995
1530986105485;-;-;-1.5615528;1.4897022;8.804092;0.20980278;-0.21190068;-0.18130043;17.85;62.4;-36.0;342.39645;-3.2626562;-5.716402;1017.6659;-;-;51.52443367;-0.13367646;0.8299999833106995
1530986105496;-;-;-1.4705421;1.6046631;8.693921;0.16825746;-0.15863746;-0.17810464;17.85;62.4;-36.0;342.39645;-3.2626562;-5.716402;1017.6659;-;-;51.52443367;-0.13367646;0.8299999833106995
1530986105507;-;-;-1.3747413;1.575923;8.674761;0.13629954;-0.088862635;-0.1626583;17.550001;62.100002;-36.45;342.6191;-3.4800403;-5.496137;1017.6659;-;-;51.52443367;-0.13367646;0.8299999833106995
1530986105517;-;-;-1.4513819;1.5519727;8.713081;0.105406865;-0.021750975;-0.14827724;17.550001;62.100002;-36.45;342.6191;-3.4800403;-5.496137;1017.6659;-;-;51.52443367;-0.13367646;0.8299999833106995
1530986105527;-;-;-1.3603711;1.5950831;8.804092;0.07291631;0.034175407;-0.12697195;16.95;61.500004;-35.4;342.81204;-3.630095;-5.3961444;1017.6659;-;-;51.52443367;-0.13367646;0.8299999833106995
1530986105537;-;-;-1.2502003;1.4753321;8.904683;0.03669731;0.11193971;-0.10992771;16.95;61.500004;-35.4;342.81204;-3.630095;-5.3961444;1017.6659;-;-;51.52443367;-0.13367646;0.8299999833106995
1530986105547;-;-;-1.0777588;1.4322218;9.187295;-0.0037827399;0.15188713;-0.10034033;18.300001;61.500004;-37.050003;342.9564;-3.7089257;-5.452589;1017.6659;-;-;51.52443367;-0.13367646;0.8299999833106995
1530986105558;-;-;-0.9963282;1.331631;9.6615095;-0.024555396;0.15135449;-0.11259087;18.300001;61.500004;-37.050003;342.9564;-3.7089257;-5.452589;1017.6684;-;-;51.52443367;-0.13367646;0.8299999833106995
1530986105568;-;-;-0.8143067;1.2645704;10.020762;-0.019229075;0.119929194;-0.11951509;17.1;62.4;-36.75;343.06366;-3.710745;-5.6222324;1017.6684;-;-;51.52443367;-0.13367646;0.8299999833106995
1530986105578;-;-;-0.52690434;1.1400293;10.408755;0.029240457;0.069329135;-0.15946251;17.1;62.4;-36.75;343.06366;-3.710745;-5.6222324;1017.6684;-;-;51.52443367;-0.13367646;0.8299999833106995
1530986105588;-;-;-0.41194338;1.0442286;10.336905;0.06972051;0.026718557;-0.20100783;17.1;62.4;-36.45;343.18988;-3.6829484;-5.781754;1017.6684;-;-;51.52443367;-0.13367646;0.8299999833106995
1530986105599;-;-;-0.22513184;1.1208692;10.150093;0.1309732;-0.016430432;-0.24042861;17.1;62.4;-36.45;343.18988;-3.6829484;-5.781754;1017.6684;-;-;51.52443367;-0.13367646;0.8299999833106995
1530986105610;-;-;-0.16765137;1.1591895;9.6615095;0.15440902;-0.0473231;-0.30221394;16.800001;62.4;-36.0;343.40265;-3.732416;-5.842036;1017.6684;-;-;51.52443367;-0.13367646;0.8299999833106995
1530986105620;-;-;-0.06227051;1.1687696;9.584868;0.14855008;-0.0473231;-0.34003082;16.800001;62.4;-36.0;343.40265;-3.732416;-5.842036;1017.6684;-;-;51.52443367;-0.13367646;0.8299999833106995
1530986105629;-;-;-0.19639161;1.1879297;9.508228;0.12884268;-0.024419915;-0.39862037;17.85;62.4;-36.75;343.7187;-3.877234;-5.8062086;1017.6684;-;-;51.52443367;-0.13367646;0.8299999833106995
1530986105639;-;-;-0.40715334;1.2981006;9.479487;0.12937531;0.015527502;-0.41619724;17.85;62.4;-36.75;343.7187;-3.877234;-5.8062086;1017.6684;-;-;51.52443367;-0.13367646;0.8299999833106995
1530986105650;-;-;-0.42152345;1.3986914;9.469908;0.12884268;0.07944337;-0.42578462;16.95;61.95;-36.600002;344.15308;-4.002379;-5.7809067;1017.6684;-;-;51.52443367;-0.13367646;0.8299999833106995
1530986105660;-;-;-0.5412744;1.2693604;9.685459;0.13949533;0.11672763;-0.42471936;16.95;61.95;-36.600002;344.15308;-4.002379;-5.7809067;1017.6717;-;-;51.52443367;-0.13367646;0.8299999833106995
1530986105670;-;-;-0.47900394;1.3507911;9.881851;0.16133325;0.13643502;-0.4401657;15.450001;63.45;-35.550003;344.6307;-4.1116333;-5.8767843;1017.6717;-;-;51.52443367;-0.13367646;0.8299999833106995
1530986105681;-;-;-0.62749517;1.3939015;9.977652;0.17411642;0.13643502;-0.43750253;15.450001;63.45;-35.550003;344.6307;-4.1116333;-5.8767843;1017.6717;-;-;51.52443367;-0.13367646;0.8299999833106995
1530986105691;-;-;-0.7711963;1.3172607;10.025552;0.19062802;0.12098868;-0.45135096;16.35;61.2;-37.5;345.11072;-4.244316;-6.0572157;1017.6717;-;-;51.52443367;-0.13367646;0.8299999833106995
1530986105701;-;-;-0.8286768;1.2885206;10.035132;0.20128067;0.12311921;-0.4433615;16.650002;62.250004;-36.15;345.6118;-4.400941;-6.238602;1017.6717;-;-;51.52443367;-0.13367646;0.8299999833106995
1530986105711;-;-;-0.75203615;1.341211;10.092612;0.20767225;0.15134871;-0.45934045;16.650002;62.250004;-36.15;345.6118;-4.400941;-6.238602;1017.6717;-;-;51.52443367;-0.13367646;0.8299999833106995
1530986105721;-;-;-0.7376661;1.3603711;10.169253;0.19808488;0.15880556;-0.46466678;17.1;62.7;-37.2;346.11823;-4.57625;-6.433705;1017.6717;-;-;51.52443367;-0.13367646;0.8299999833106995
1530986105732;-;-;-0.9388477;1.2645704;10.035132;0.10380897;0.1742519;-0.48703733;17.1;62.7;-37.2;346.11823;-4.57625;-6.433705;1017.6717;-;-;51.52443367;-0.13367646;0.8299999833106995
1530986105742;-;-;-1.096919;1.2502003;10.049502;0.055339437;0.20620984;-0.49129838;17.1;62.4;-36.75;346.6502;-4.7018857;-6.6717978;1017.6717;-;-;51.52443367;-0.13367646;0.8299999833106995
1530986105752;-;-;-1.5136524;1.1496094;10.490186;-0.12841868;0.24668989;-0.47105837;17.1;62.4;-36.75;346.6502;-4.7018857;-6.6717978;1017.6717;-;-;51.52443367;-0.13367646;0.8299999833106995
1530986105763;-;-;-1.5519727;1.1496094;10.916499;-0.19393244;0.26000568;-0.46306887;16.95;62.550003;-37.5;347.1832;-4.6021957;-6.9782367;1017.65753;-;-;51.52443367;-0.13367646;0.8299999833106995
