TimeStamp[ms];Prox[Cm];Lux[lux];AccX[m/s^2];AccY[m/s^2];AccZ[m/s^2];GyroX[rad/s];GyroY[rad/s];GyroZ[rad/s];MagnX[uT];MagnY[uT];MagnZ[uT];OrienYaw[degrees];OrienPitch[degrees];OrienRoll[degrees];Press[Pa];Temp[C°];Batt[%];Lat;Lng;Speed[m/s]
1531048621266;-;-;0.56522465;1.2693604;9.843531;-0.0034113242;-0.069653384;0.046882674;-13.650001;30.45;-38.4;22.87441;-7.845458;2.719875;1020.6762;-;-;51.52502863;-0.1334877;0.0
1531048621266;-;-;0.56522465;1.2693604;9.843531;-0.0034113242;-0.069653384;0.046882674;-13.650001;30.45;-38.4;22.87441;-7.845458;2.719875;1020.6762;-;-;51.52502863;-0.1334877;0.0
1531048621265;-;-;0.56522465;1.2693604;9.843531;-0.0034113242;-0.069653384;0.046882674;-13.650001;30.45;-38.4;22.87441;-7.845458;2.719875;1020.6762;-;-;51.52502863;-0.1334877;0.0
1531048621279;-;-;0.68018556;1.346001;9.7142;-0.014063968;-0.07551234;0.04368688;-13.650001;30.45;-38.4;22.87441;-7.845458;2.719875;1020.6762;-;-;51.52502863;-0.1334877;0.0
1531048621279;-;-;0.68018556;1.346001;9.7142;-0.014063968;-0.07551234;0.04368688;-13.650001;30.45;-38.4;22.87441;-7.845458;2.719875;1020.6762;-;-;51.52502863;-0.1334877;0.0
1531048621289;-;-;0.67539555;1.331631;9.69504;-0.011400808;-0.037162814;0.03196897;-14.1;30.45;-37.2;22.851707;-7.863977;2.7875078;1020.6762;-;-;51.52502863;-0.1334877;0.0
1531048621300;-;-;0.5508545;1.3076807;9.867481;-0.010868176;-0.041423872;0.032501604;-14.1;30.45;-37.2;22.851707;-7.863977;2.7875078;1020.6762;-;-;51.52502863;-0.1334877;0.0
1531048621310;-;-;0.53169435;1.336421;9.70941;-0.024183981;-0.061131265;0.032501604;-14.85;30.000002;-39.9;22.809582;-7.855563;2.874797;1020.6762;-;-;51.52502863;-0.1334877;0.0
1531048621320;-;-;0.5748047;1.2645704;9.73815;-0.022586085;-0.056337576;0.04368688;-14.85;30.000002;-39.9;22.809582;-7.855563;2.874797;1020.7282;-;-;51.52502863;-0.1334877;0.0
1531048621330;-;-;0.7041358;1.2549903;9.75731;-0.0311082;-0.061663896;0.04368688;-13.650001;29.85;-37.65;22.779228;-7.84042;2.9287744;1020.7282;-;-;51.52502863;-0.1334877;0.0
1531048621340;-;-;0.68976563;1.2933106;9.74294;-0.04282611;-0.076577604;0.04794794;-14.700001;30.45;-38.100002;22.779228;-7.84042;2.9287744;1020.7282;-;-;51.52502863;-0.1334877;0.0
1531048621350;-;-;0.74724615;1.21188;9.977652;-0.036434524;-0.06645759;0.028773176;-14.700001;30.45;-38.100002;22.744293;-7.8148665;2.9978704;1020.7282;-;-;51.52502863;-0.1334877;0.0
1531048621361;-;-;0.78556645;1.2597803;10.106983;-0.008737647;-0.06379443;0.03463213;-13.950001;29.7;-37.800003;22.744293;-7.8148665;2.9978704;1020.7282;-;-;51.52502863;-0.1334877;0.0
1531048621371;-;-;0.6610254;1.2837305;9.963282;0.01949186;-0.049945988;0.017587898;-13.950001;29.7;-37.800003;22.702744;-7.774716;3.079232;1020.7282;-;-;51.52502863;-0.1334877;0.0
1531048621381;-;-;0.7376661;1.2597803;9.862691;0.037601355;-0.022781746;0.029838441;-15.3;28.95;-38.25;22.673458;-7.7463655;3.1578188;1020.7282;-;-;51.52502863;-0.1334877;0.0
1531048621391;-;-;0.6610254;1.2070899;9.527389;0.020024493;-0.008400676;0.051676363;-15.3;28.95;-38.25;22.673458;-7.7463655;3.1578188;1020.7282;-;-;51.52502863;-0.1334877;0.0
1531048621401;-;-;0.7185059;1.2933106;9.460327;-2.1553092E-4;-4.1119207E-4;0.044752143;-14.1;31.2;-36.75;22.673458;-7.7463655;3.1578188;1020.7282;-;-;51.52502863;-0.1334877;0.0
1531048621412;-;-;0.75203615;1.22146;9.445957;-0.06519666;0.007578292;0.039958455;-14.1;31.2;-36.75;22.645803;-7.7714715;3.2072499;1020.7282;-;-;51.52502863;-0.1334877;0.0
1531048621422;-;-;0.81909674;1.22146;9.532178;-0.08650195;-0.007868043;0.016522635;-14.85;29.7;-39.45;22.595165;-7.786335;3.218393;1020.7282;-;-;51.52502863;-0.1334877;0.0
1531048621432;-;-;0.8765772;1.1448194;9.82437;-0.10567671;-0.011596468;0.006402624;-14.85;29.7;-39.45;22.595165;-7.786335;3.218393;1020.7282;-;-;51.52502863;-0.1334877;0.0
1531048621445;-;-;0.74724615;1.1160791;10.150093;-0.08969774;-0.035564918;-0.019163724;-12.6;30.150002;-37.2;22.552994;-7.7209835;3.2178276;1020.7282;-;-;51.52502863;-0.1334877;0.0
1531048621452;-;-;0.6610254;1.096919;10.2315235;-0.05880508;-0.03769545;-0.005847918;-12.6;30.150002;-37.2;22.552994;-7.7209835;3.2178276;1020.7282;-;-;51.52502863;-0.1334877;0.0
1531048621462;-;-;0.6514453;1.1400293;10.169253;-0.032173466;-0.039293345;-0.0063805506;-14.400001;30.150002;-38.4;22.55154;-7.6037316;3.2363162;1020.7282;-;-;51.52502863;-0.1334877;0.0
1531048621472;-;-;0.6610254;1.1352394;10.183623;0.0051107914;-0.02810807;0.005869991;-14.400001;30.150002;-38.4;22.55154;-7.6037316;3.2363162;1020.7282;-;-;51.52502863;-0.1334877;0.0
1531048621483;-;-;0.64186525;1.1735597;10.059082;0.02162239;-0.02331438;0.0090657845;-15.450001;30.45;-39.600002;22.573877;-7.535951;3.273268;1020.7282;-;-;51.52502863;-0.1334877;0.0
1531048621492;-;-;0.6322852;1.1783496;10.015972;0.048254002;-0.012129101;0.017055267;-15.450001;30.45;-39.600002;22.573877;-7.535951;3.273268;1020.7282;-;-;51.52502863;-0.1334877;0.0
1531048621502;-;-;0.60833496;1.2070899;9.987232;0.050917163;-0.005204882;0.016522635;-16.5;30.900002;-38.4;22.579515;-7.537029;3.3114543;1020.7282;-;-;51.52502863;-0.1334877;0.0
1531048621512;-;-;0.6514453;1.2310401;9.800421;0.06742877;0.0065130265;0.033034235;-16.5;30.900002;-38.4;22.579515;-7.537029;3.3114543;1020.7256;-;-;51.52502863;-0.1334877;0.0
1531048621522;-;-;0.6514453;1.3028907;9.75252;0.06370034;0.0027846014;0.03196897;-15.900001;30.000002;-39.0;22.570484;-7.5881;3.324032;1020.7256;-;-;51.52502863;-0.1334877;0.0
1531048621532;-;-;0.68976563;1.2885206;9.64714;0.054112956;-0.009998572;0.033034235;-15.900001;30.000002;-39.0;22.570484;-7.5881;3.324032;1020.7256;-;-;51.52502863;-0.1334877;0.0
1531048621542;-;-;0.7424561;1.2645704;9.594449;0.048786633;-0.0062701465;0.03889319;-14.700001;30.900002;-38.850002;22.540869;-7.657025;3.3222106;1020.7256;-;-;51.52502863;-0.1334877;0.0
1531048621553;-;-;0.81909674;1.2597803;9.632769;0.024818182;-0.0041396176;0.017587898;-14.700001;30.900002;-38.850002;22.540869;-7.657025;3.3222106;1020.7256;-;-;51.52502863;-0.1334877;0.0
1531048621563;-;-;0.6849756;1.3555812;9.560919;-2.1553092E-4;-0.01639016;0.027707912;-15.150001;30.45;-38.4;22.50136;-7.7224584;3.332533;1020.7256;-;-;51.52502863;-0.1334877;0.0
1531048621573;-;-;0.64186525;1.3076807;9.73815;-0.028445039;-0.044087034;0.0032068298;-15.150001;30.45;-38.4;22.50136;-7.7224584;3.332533;1020.7256;-;-;51.52502863;-0.1334877;0.0
1531048621583;-;-;0.76161623;1.2741505;9.848321;-0.03057557;-0.06432706;0.0074678874;-15.3;31.35;-39.9;22.477015;-7.7416725;3.3509338;1020.7256;-;-;51.52502863;-0.1334877;0.0
1531048621593;-;-;0.7664063;1.2406201;9.905801;-0.0311082;-0.057402838;0.016522635;-15.3;31.35;-39.9;22.477015;-7.7416725;3.3509338;1020.7256;-;-;51.52502863;-0.1334877;0.0
1531048621603;-;-;0.7089258;1.2981006;9.958491;-0.03057557;-0.057402838;0.009598416;-14.55;29.250002;-36.600002;22.468912;-7.716945;3.4032378;1020.7256;-;-;51.52502863;-0.1334877;0.0
1531048621613;-;-;0.7376661;1.2645704;10.059082;-0.0076723816;-0.03822808;0.012794211;-14.55;29.250002;-36.600002;22.468912;-7.716945;3.4032378;1020.7298;-;-;51.52502863;-0.1334877;0.0
1531048621624;-;-;0.7664063;1.2933106;10.068663;-0.0076723816;-0.03130386;0.009598416;-13.200001;31.650002;-37.800003;22.466196;-7.680547;3.474237;1020.7298;-;-;51.52502863;-0.1334877;0.0
1531048621634;-;-;0.75203615;1.3651612;10.212363;0.03120977;-0.0286407;0.0053373585;-13.200001;31.650002;-37.800003;22.466196;-7.680547;3.474237;1020.7298;-;-;51.52502863;-0.1334877;0.0
1531048621644;-;-;0.71371585;1.2885206;10.2315235;0.05304769;-0.037162814;-0.005315286;-14.400001;30.150002;-36.45;22.461359;-7.663545;3.5241053;1020.7298;-;-;51.52502863;-0.1334877;0.0
1531048621654;-;-;0.7185059;1.2454102;10.178833;0.077016145;-0.04834809;-0.0015868603;-14.400001;30.150002;-36.45;22.461359;-7.663545;3.5241053;1020.7298;-;-;51.52502863;-0.1334877;0.0
1531048621664;-;-;0.68976563;1.3076807;9.958491;0.091929846;-0.05580494;0.0032068298;-15.3;30.6;-37.800003;22.46457;-7.687637;3.5596123;1020.7298;-;-;51.52502863;-0.1334877;0.0
1531048621674;-;-;0.7759864;1.2645704;9.953702;0.100984596;-0.06645759;0.0032068298;-15.3;30.6;-37.800003;22.46457;-7.687637;3.5596123;1020.7298;-;-;51.52502863;-0.1334877;0.0
1531048621685;-;-;0.7424561;1.2741505;9.939331;0.09725617;-0.08829551;1.1036405E-5;-14.1;31.2;-39.300003;22.479895;-7.7701535;3.6146486;1020.7298;-;-;51.52502863;-0.1334877;0.0
1531048621694;-;-;0.6610254;1.2549903;9.929751;0.0993867;-0.107470274;0.0016089331;-14.1;31.2;-39.300003;22.479895;-7.7701535;3.6146486;1020.7298;-;-;51.52502863;-0.1334877;0.0
1531048621704;-;-;0.86220706;1.336421;9.77168;0.09139722;-0.11439449;-0.0042500217;-15.150001;30.150002;-36.75;22.490639;-7.881858;3.6932764;1020.7298;-;-;51.52502863;-0.1334877;0.0
1531048621714;-;-;0.7807764;1.2502003;9.6758795;0.07648351;-0.101611316;1.1036405E-5;-15.150001;30.150002;-36.75;22.490639;-7.881858;3.6932764;1020.7381;-;-;51.52502863;-0.1334877;0.0
1531048621724;-;-;0.7664063;1.2981006;9.460327;0.04559084;-0.10800291;-0.0042500217;-14.1;30.45;-36.75;22.508535;-7.995244;3.8093836;1020.7381;-;-;51.52502863;-0.1334877;0.0
1531048621734;-;-;0.74724615;1.3555812;9.407638;0.006708688;-0.10427448;0.011728945;-14.1;30.45;-36.75;22.508535;-7.995244;3.8093836;1020.7381;-;-;51.52502863;-0.1334877;0.0
1531048621745;-;-;0.8095166;1.2933106;9.350157;-0.03749979;-0.10800291;0.021316325;-13.500001;29.7;-37.050003;22.530233;-8.089481;3.9288821;1020.7381;-;-;51.52502863;-0.1334877;0.0
1531048621755;-;-;0.92926764;1.3028907;9.493857;-0.06519666;-0.10320921;0.017587898;-13.500001;29.7;-37.050003;22.530233;-8.089481;3.9288821;1020.7381;-;-;51.52502863;-0.1334877;0.0
1531048621765;-;-;0.97237796;1.2789404;9.565708;-0.08863248;-0.08882815;0.004272094;-14.55;29.250002;-37.050003;22.542204;-8.107523;4.048951;1020.7381;-;-;51.52502863;-0.1334877;0.0
1531048621775;-;-;1.1304493;1.3028907;9.704619;-0.103013545;-0.08616498;-0.016500562;-14.55;29.250002;-37.050003;22.542204;-8.107523;4.048951;1020.7381;-;-;51.52502863;-0.1334877;0.0
1531048621785;-;-;0.9196875;1.336421;9.6758795;-0.10727461;-0.06858812;-0.021294253;-14.250001;30.300001;-38.25;22.540583;-8.044291;4.167886;1020.7381;-;-;51.52502863;-0.1334877;0.0
1531048621796;-;-;0.8382569;1.22625;9.64714;-0.118992515;-0.06805549;-0.014902665;-14.250001;30.300001;-38.25;22.540583;-8.044291;4.167886;1020.7381;-;-;51.52502863;-0.1334877;0.0
1531048621806;-;-;0.86220706;1.3124708;9.78605;-0.121123046;-0.07231654;-0.0063805506;-15.150001;30.900002;-37.2;22.557549;-7.9305296;4.26345;1020.73315;-;-;51.52502863;-0.1334877;0.0
1531048621816;-;-;0.82388675;1.2885206;9.996812;-0.10354618;-0.058468103;-0.0042500217;-15.150001;30.900002;-37.2;22.557549;-7.9305296;4.26345;1020.73315;-;-;51.52502863;-0.1334877;0.0
1531048621826;-;-;0.9627979;1.1927198;10.039923;-0.08437142;-0.06805549;0.0048047267;-16.050001;31.500002;-38.100002;22.585413;-7.8030586;4.342425;1020.73315;-;-;51.52502863;-0.1334877;0.0
1531048621836;-;-;1.0106983;1.1831397;10.145303;-0.05720718;-0.05953337;1.1036405E-5;-16.050001;31.500002;-38.100002;22.585413;-7.8030586;4.342425;1020.73315;-;-;51.52502863;-0.1334877;0.0
1531048621846;-;-;1.1352394;1.21188;10.202784;-0.02578188;-0.041423872;-5.215958E-4;-14.700001;30.150002;-36.45;22.600039;-7.676927;4.421275;1020.73315;-;-;51.52502863;-0.1334877;0.0
1531048621856;-;-;1.2597803;1.1879297;10.030342;-0.0018134275;-0.040358607;-0.02555531;-14.700001;30.150002;-36.45;22.600039;-7.676927;4.421275;1020.73315;-;-;51.52502863;-0.1334877;0.0
1531048621867;-;-;1.2549903;1.22146;10.073453;0.015763436;-0.04302177;-0.04473007;-15.450001;31.500002;-37.2;22.606497;-7.601166;4.486803;1020.73315;-;-;51.52502863;-0.1334877;0.0
1531048621877;-;-;1.1352394;1.2837305;10.068663;0.024285551;-0.030238597;-0.062306933;-15.450001;31.500002;-37.2;22.606497;-7.601166;4.486803;1020.73315;-;-;51.52502863;-0.1334877;0.0
1531048621887;-;-;1.0681788;1.2310401;10.159674;0.047188736;-0.0110638365;-0.07136168;-14.700001;29.85;-36.45;22.627386;-7.588557;4.5314393;1020.73315;-;-;51.52502863;-0.1334877;0.0
1531048621897;-;-;0.96758795;1.2070899;10.140513;0.07648351;0.008110924;-0.07562274;-14.700001;29.85;-36.45;22.627386;-7.588557;4.5314393;1020.73315;-;-;51.52502863;-0.1334877;0.0
1531048621907;-;-;0.9388477;1.2358302;10.049502;0.09619091;0.0038498659;-0.07189431;-14.700001;31.500002;-37.65;22.688076;-7.620113;4.564439;1020.72943;-;-;51.52502863;-0.1334877;0.0
1531048621918;-;-;0.8909473;1.1927198;9.872271;0.10844145;0.017698303;-0.062306933;-14.700001;31.500002;-37.65;22.688076;-7.620113;4.564439;1020.72943;-;-;51.52502863;-0.1334877;0.0
1531048621928;-;-;0.7664063;1.21188;9.833951;0.10524565;0.018763566;-0.053252187;-14.700001;29.400002;-38.100002;22.7703;-7.7026267;4.5570436;1020.72943;-;-;51.52502863;-0.1334877;0.0
1531048621937;-;-;0.7232959;1.2310401;9.77647;0.09565827;-0.0014764565;-0.04473007;-14.700001;29.400002;-38.100002;22.7703;-7.7026267;4.5570436;1020.72943;-;-;51.52502863;-0.1334877;0.0
1531048621947;-;-;0.67539555;1.2645704;9.75731;0.079146676;-0.026510172;-0.027153207;-12.900001;28.95;-38.25;22.843971;-7.8296723;4.537584;1020.72943;-;-;51.52502863;-0.1334877;0.0
1531048621957;-;-;0.8047266;1.2454102;9.699829;0.074885614;-0.024912275;-0.007445815;-12.900001;28.95;-38.25;22.843971;-7.8296723;4.537584;1020.72943;-;-;51.52502863;-0.1334877;0.0
1531048621967;-;-;0.8861573;1.2885206;9.718989;0.07168982;-0.029173333;-0.009576344;-12.450001;29.7;-37.800003;22.896608;-7.9494348;4.5223083;1020.72943;-;-;51.52502863;-0.1334877;0.0
1531048621977;-;-;0.96758795;1.2310401;9.627979;0.056776118;-0.03769545;-0.0047826534;-12.450001;29.7;-37.800003;22.896608;-7.9494348;4.5223083;1020.72943;-;-;51.52502863;-0.1334877;0.0
1531048621988;-;-;0.75203615;1.3220508;9.570498;0.046656106;-0.032369126;0.010131049;-13.650001;29.1;-37.2;22.918814;-8.041365;4.5519156;1020.72943;-;-;51.52502863;-0.1334877;0.0
1531048621998;-;-;0.7711963;1.4130616;9.546548;0.024818182;-0.032901756;0.0074678874;-13.650001;29.1;-37.2;22.918814;-8.041365;4.5519156;1020.72943;-;-;51.52502863;-0.1334877;0.0
1531048622008;-;-;0.79993653;1.4465919;9.565708;0.027481344;0.0033172336;0.015457372;-14.1;28.800001;-37.65;22.928196;-8.111292;4.5930653;1020.7269;-;-;51.52502863;-0.1334877;0.0
1531048622018;-;-;0.9196875;1.3843213;9.69504;0.023752918;-9.438243E-4;0.0069352556;-14.1;28.800001;-37.65;22.928196;-8.111292;4.5930653;1020.7269;-;-;51.52502863;-0.1334877;0.0
1531048622029;-;-;1.1304493;1.3891114;9.872271;0.028013976;0.013969879;-0.030881634;-14.400001;28.800001;-37.65;22.922726;-8.152972;4.628959;1020.7269;-;-;51.52502863;-0.1334877;0.0
1531048622039;-;-;1.0873389;1.3028907;9.924961;0.047188736;0.0192962;-0.061774302;-15.750001;29.85;-38.4;22.911762;-8.182349;4.629436;1020.7269;-;-;51.52502863;-0.1334877;0.0
1531048622049;-;-;0.8909473;1.1256592;9.75252;0.05517822;0.02195936;-0.07295958;-15.750001;29.85;-38.4;22.911762;-8.182349;4.629436;1020.7269;-;-;51.52502863;-0.1334877;0.0
1531048622059;-;-;0.732876;1.1735597;9.656719;0.033872932;0.0054477626;-0.05698061;-13.500001;29.250002;-37.050003;22.95747;-8.229349;4.6044755;1020.7269;-;-;51.52502863;-0.1334877;0.0
1531048622069;-;-;0.57001466;1.4322218;9.474698;-0.014596601;-0.04834809;-0.0085110795;-13.500001;29.250002;-37.050003;22.95747;-8.229349;4.6044755;1020.7269;-;-;51.52502863;-0.1334877;0.0
1531048622080;-;-;0.60354495;1.5232325;9.532178;-0.041228212;-0.03822808;0.010131049;-14.400001;28.800001;-36.45;23.026478;-8.283994;4.582901;1020.7269;-;-;51.52502863;-0.1334877;0.0
1531048622090;-;-;0.9532178;1.4609619;9.594449;-0.085969314;-0.016922792;0.03463213;-14.400001;28.800001;-36.45;23.026478;-8.283994;4.582901;1020.7269;-;-;51.52502863;-0.1334877;0.0
1531048622100;-;-;1.0346485;1.4705421;9.508228;-0.0939588;-0.010531205;0.029838441;-13.35;30.45;-38.100002;23.026478;-8.283994;4.582901;1020.7269;-;-;51.52502863;-0.1334877;0.0
1531048622110;-;-;1.22146;1.4226416;9.479487;-0.13124306;0.01183935;0.0010763009;-13.35;30.45;-38.100002;23.033316;-8.25636;4.6275544;1020.72046;-;-;51.52502863;-0.1334877;0.0
1531048622120;-;-;1.331631;1.2885206;9.484278;-0.14775467;0.0145025095;-0.010641607;-16.050001;30.900002;-37.65;23.00227;-8.154299;4.6528707;1020.72046;-;-;51.52502863;-0.1334877;0.0
1531048622130;-;-;1.2741505;1.3220508;9.599238;-0.17758207;0.004382498;-0.04313217;-16.050001;30.900002;-37.65;23.00227;-8.154299;4.6528707;1020.72046;-;-;51.52502863;-0.1334877;0.0
1531048622141;-;-;1.3076807;1.21188;9.800421;-0.18397366;-0.003074353;-0.05431745;-14.55;30.000002;-35.850002;22.999592;-8.003744;4.640113;1020.72046;-;-;51.52502863;-0.1334877;0.0
1531048622151;-;-;1.0729688;1.2166699;9.972861;-0.1749189;0.009176188;-0.09213434;-14.55;30.000002;-35.850002;22.999592;-8.003744;4.640113;1020.72046;-;-;51.52502863;-0.1334877;0.0
1531048622161;-;-;0.89573735;1.2358302;10.030342;-0.15893994;0.0027846014;-0.0947975;-14.85;29.7;-37.800003;23.051165;-7.8034487;4.6316442;1020.72046;-;-;51.52502863;-0.1334877;0.0
1531048622171;-;-;0.728086;1.2597803;10.207574;-0.11632936;0.0145025095;-0.09799329;-14.85;29.7;-37.800003;23.051165;-7.8034487;4.6316442;1020.72046;-;-;51.52502863;-0.1334877;0.0
1531048622181;-;-;0.8382569;1.2502003;10.303374;-0.09289353;0.013969879;-0.09959119;-15.3;29.7;-39.45;23.1519;-7.6152396;4.606737;1020.72046;-;-;51.52502863;-0.1334877;0.0
1531048622192;-;-;0.852627;1.2693604;10.336905;-0.073186144;0.007578292;-0.09959119;-15.3;29.7;-39.45;23.1519;-7.6152396;4.606737;1020.72046;-;-;51.52502863;-0.1334877;0.0
1531048622201;-;-;0.8143067;1.1735597;10.236314;-0.06519666;-0.0041396176;-0.09959119;-14.1;29.400002;-37.2;23.264177;-7.4888444;4.57965;1020.72046;-;-;51.52502863;-0.1334877;0.0
1531048622211;-;-;0.7568262;1.1687696;10.083033;-0.048685063;-0.02331438;-0.09852593;-14.1;29.400002;-37.2;23.264177;-7.4888444;4.57965;1020.7266;-;-;51.52502863;-0.1334877;0.0
1531048622221;-;-;0.74724615;1.101709;9.987232;-0.03856544;-0.027045436;-0.09321013;-14.1;29.400002;-37.2;23.264177;-7.4888444;4.57965;1020.7266;-;-;51.52502863;-0.1334877;0.0
1531048622231;-;-;0.9244776;1.1496094;9.7812605;-0.02152121;-0.08190656;-0.09001434;-15.3;31.050001;-37.5;23.376144;-7.414674;4.5600705;1020.7266;-;-;51.52502863;-0.1334877;0.0
1531048622241;-;-;1.0346485;1.2406201;9.613608;-0.012466462;-0.076580234;-0.097471185;-14.700001;30.150002;-38.4;23.487822;-7.371746;4.57985;1020.7266;-;-;51.52502863;-0.1334877;0.0
1531048622252;-;-;1.0825489;1.1687696;9.378897;-0.045489658;-0.09202657;-0.12357017;-14.700001;30.150002;-38.4;23.487822;-7.371746;4.57985;1020.7266;-;-;51.52502863;-0.1334877;0.0
1531048622262;-;-;1.0202783;1.1543995;9.3453665;-0.062001258;-0.095754996;-0.13049437;-15.450001;29.400002;-38.4;23.600485;-7.359111;4.6540213;1020.7266;-;-;51.52502863;-0.1334877;0.0
1531048622272;-;-;0.8765772;1.0202783;9.407638;-0.10088342;-0.11013606;-0.14167966;-15.450001;29.400002;-38.4;23.600485;-7.359111;4.6540213;1020.7266;-;-;51.52502863;-0.1334877;0.0
1531048622282;-;-;0.8334668;1.0681788;9.508228;-0.1418961;-0.13037609;-0.13954912;-14.700001;30.150002;-39.300003;23.741802;-7.3239346;4.740478;1020.7266;-;-;51.52502863;-0.1334877;0.0
1531048622292;-;-;0.67539555;1.1496094;9.977652;-0.15734243;-0.1436919;-0.11451542;-14.700001;30.150002;-39.300003;23.741802;-7.3239346;4.740478;1020.7266;-;-;51.52502863;-0.1334877;0.0
1531048622303;-;-;0.79035646;1.1112891;10.188414;-0.1520161;-0.124517135;-0.10013435;-15.150001;30.45;-37.65;23.911718;-7.221739;4.849156;1020.7218;-;-;51.52502863;-0.1334877;0.0
1531048622312;-;-;0.92926764;1.2693604;10.466236;-0.09555709;-0.10587501;-0.09427539;-15.150001;30.45;-37.65;23.911718;-7.221739;4.849156;1020.7218;-;-;51.52502863;-0.1334877;0.0
1531048622322;-;-;0.977168;1.2693604;10.485396;-0.039630704;-0.08030866;-0.09906908;-15.450001;29.1;-36.45;24.064905;-7.0610814;4.9829073;1020.7218;-;-;51.52502863;-0.1334877;0.0
1531048622332;-;-;0.9388477;1.1160791;10.585987;0.0546452;-0.054742314;-0.10546067;-15.450001;29.1;-36.45;24.064905;-7.0610814;4.9829073;1020.7218;-;-;51.52502863;-0.1334877;0.0
1531048622342;-;-;0.8334668;1.1304493;10.3512745;0.12069159;-0.041959137;-0.10705857;-14.700001;30.45;-37.2;24.184893;-6.9672174;5.0828023;1020.7218;-;-;51.52502863;-0.1334877;0.0
1531048622353;-;-;0.7807764;1.1879297;9.948912;0.14466004;-0.048883356;-0.09214487;-14.700001;30.45;-37.2;24.184893;-6.9672174;5.0828023;1020.7218;-;-;51.52502863;-0.1334877;0.0
1531048622362;-;-;0.8143067;1.2502003;9.857901;0.12761581;-0.0611339;-0.08202485;-13.950001;30.300001;-37.050003;24.313272;-7.0377145;5.136337;1020.7218;-;-;51.52502863;-0.1334877;0.0
1531048622372;-;-;0.9484278;1.1735597;9.77647;0.12761581;-0.08350445;-0.075633265;-13.950001;30.300001;-37.050003;24.313272;-7.0377145;5.136337;1020.7218;-;-;51.52502863;-0.1334877;0.0
1531048622382;-;-;0.9196875;1.2502003;9.929751;0.13454004;-0.08883078;-0.08788381;-14.55;29.250002;-37.800003;24.426477;-7.198776;5.1830993;1020.7218;-;-;51.52502863;-0.1334877;0.0
1531048622392;-;-;0.82388675;1.2693604;9.881851;0.12015896;-0.09735289;-0.08894907;-14.55;29.250002;-37.800003;24.426477;-7.198776;5.1830993;1020.7218;-;-;51.52502863;-0.1334877;0.0
1531048622402;-;-;0.79035646;1.2885206;9.80521;0.11270211;-0.091493934;-0.076698534;-14.85;30.6;-36.15;24.534597;-7.357847;5.2595167;1020.7185;-;-;51.52502863;-0.1334877;0.0
1531048622413;-;-;0.7759864;1.3555812;9.74773;0.09352735;-0.0611339;-0.045805857;-14.85;30.6;-36.15;24.534597;-7.357847;5.2595167;1020.7185;-;-;51.52502863;-0.1334877;0.0
1531048622422;-;-;0.8047266;1.346001;9.632769;0.070624165;-0.03982861;-0.030892156;-14.250001;28.650002;-37.5;24.648634;-7.5109043;5.348785;1020.7185;-;-;51.52502863;-0.1334877;0.0
1531048622433;-;-;1.0106983;1.3747413;9.637559;0.05038414;-0.008403309;-0.015445821;-14.250001;28.650002;-37.5;24.648634;-7.5109043;5.348785;1020.7185;-;-;51.52502863;-0.1334877;0.0
1531048622447;-;-;1.0777588;1.2645704;9.77168;0.041862026;0.02728305;-0.007456338;-15.900001;30.6;-37.050003;24.715975;-7.621724;5.4134836;1020.7185;-;-;51.52502863;-0.1334877;0.0
1531048622453;-;-;0.87178713;1.2070899;9.78605;0.031742014;0.033142004;-0.009054234;-15.900001;30.6;-37.050003;24.715975;-7.621724;5.4134836;1020.7185;-;-;51.52502863;-0.1334877;0.0
1531048622463;-;-;0.852627;1.3220508;9.7621;0.041329395;0.04379465;0.0015984098;-15.150001;29.85;-36.45;24.740616;-7.6863804;5.421292;1020.7185;-;-;51.52502863;-0.1334877;0.0
1531048622473;-;-;0.87178713;1.4178516;9.881851;0.033872545;0.0363378;0.019707907;-15.150001;29.85;-36.45;24.740616;-7.6863804;5.421292;1020.7185;-;-;51.52502863;-0.1334877;0.0
1531048622483;-;-;0.9196875;1.3028907;9.85311;0.045590453;0.04805571;0.029827919;-16.050001;29.400002;-38.4;24.741617;-7.7302856;5.389036;1020.7185;-;-;51.52502863;-0.1334877;0.0
1531048622494;-;-;0.9580079;1.2454102;9.632769;0.0546452;0.046457812;0.03036055;-16.050001;29.400002;-38.4;24.741617;-7.7302856;5.389036;1020.7164;-;-;51.52502863;-0.1334877;0.0
1531048622504;-;-;1.0346485;1.336421;9.498648;0.041862026;0.061904147;0.033556346;-16.35;28.95;-37.800003;24.71016;-7.7701364;5.345111;1020.7164;-;-;51.52502863;-0.1334877;0.0
1531048622514;-;-;0.9963282;1.3076807;9.560919;0.005110401;0.05551256;0.03675214;-16.35;28.95;-37.800003;24.71016;-7.7701364;5.345111;1020.7164;-;-;51.52502863;-0.1334877;0.0
1531048622524;-;-;0.9532178;1.2310401;9.83874;0.00244724;0.06350204;0.021305803;-16.5;29.85;-37.2;24.664465;-7.821216;5.289137;1020.7164;-;-;51.52502863;-0.1334877;0.0
1531048622534;-;-;0.9580079;1.1831397;10.020762;0.013632517;0.05817572;0.02077317;-16.5;29.85;-37.2;24.664465;-7.821216;5.289137;1020.7164;-;-;51.52502863;-0.1334877;0.0
1531048622544;-;-;0.9867481;1.2933106;10.092612;0.02641569;0.040066224;0.013848951;-16.35;30.000002;-38.25;24.615396;-7.8361773;5.2359266;1020.7164;-;-;51.52502863;-0.1334877;0.0
1531048622555;-;-;1.0298585;1.2789404;10.083033;0.034405176;0.024087258;0.015446849;-16.35;30.000002;-38.25;24.615396;-7.8361773;5.2359266;1020.7164;-;-;51.52502863;-0.1334877;0.0
1531048622565;-;-;1.0633887;1.2166699;10.116563;0.056243096;0.021956727;0.013316318;-16.800001;30.150002;-40.050003;24.584621;-7.8467703;5.1723456;1020.7164;-;-;51.52502863;-0.1334877;0.0
1531048622575;-;-;1.0106983;1.2406201;10.078242;0.08074418;0.032609373;0.010653159;-16.800001;30.150002;-40.050003;24.584621;-7.8467703;5.1723456;1020.7164;-;-;51.52502863;-0.1334877;0.0
1531048622586;-;-;0.9196875;1.3651612;9.920172;0.09192945;0.016630407;0.019707907;-17.1;29.85;-37.2;24.564096;-7.88391;5.1410375;1020.7164;-;-;51.52502863;-0.1334877;0.0
1531048622596;-;-;0.90052736;1.3268409;9.599238;0.08074418;0.0065103928;0.03249108;-17.1;29.85;-37.2;24.564096;-7.88391;5.1410375;1020.70984;-;-;51.52502863;-0.1334877;0.0
1531048622605;-;-;0.9963282;1.3220508;9.354947;0.04718835;0.0017167032;0.034621608;-16.650002;29.7;-37.050003;24.549261;-7.9651017;5.1140485;1020.70984;-;-;51.52502863;-0.1334877;0.0
1531048622615;-;-;1.1112891;1.2885206;9.101074;-0.009270669;0.010238819;0.026632125;-16.650002;29.7;-37.050003;24.549261;-7.9651017;5.1140485;1020.70984;-;-;51.52502863;-0.1334877;0.0
1531048622625;-;-;1.1112891;1.3603711;8.957374;-0.057207566;0.0512515;0.013316318;-14.700001;30.45;-36.45;24.521133;-8.051151;5.10759;1020.70984;-;-;51.52502863;-0.1334877;0.0
1531048622636;-;-;1.22146;1.3220508;8.689131;-0.120590806;0.10984105;-0.0031952802;-14.700001;30.45;-36.45;24.521133;-8.051151;5.10759;1020.70984;-;-;51.52502863;-0.1334877;0.0
1531048622646;-;-;1.1496094;1.3076807;8.49274;-0.23084567;0.14286424;-0.014913188;-15.150001;29.85;-36.75;24.486984;-8.055478;5.098565;1020.70984;-;-;51.52502863;-0.1334877;0.0
1531048622669;-;-;0.9963282;1.3076807;9.105865;-0.42099538;0.13114634;-0.042610064;-15.450001;29.400002;-37.2;24.47041;-7.933924;4.990957;1020.70984;-;-;51.52502863;-0.1334877;0.0
1531048622667;-;-;1.0873389;1.3651612;8.962164;-0.40554905;0.12635264;-0.03888164;-15.450001;29.400002;-37.2;24.47041;-7.933924;4.990957;1020.70984;-;-;51.52502863;-0.1334877;0.0
1531048622694;-;-;1.0394385;1.1879297;10.720108;-0.42632172;0.015032508;-0.08628591;-17.1;31.2;-38.4;24.470726;-7.6216393;4.816024;1020.71655;-;-;51.52502863;-0.1334877;0.0
1531048622692;-;-;0.9627979;1.1735597;10.643467;-0.45188805;0.03420727;-0.082557485;-17.1;31.2;-38.4;24.470726;-7.6216393;4.816024;1020.71655;-;-;51.52502863;-0.1334877;0.0
1531048622698;-;-;0.97237796;1.21188;10.744058;-0.42632172;0.015032508;-0.08628591;-16.650002;32.100002;-39.0;24.509474;-7.1321883;4.6773515;1020.71655;-;-;51.52502863;-0.1334877;0.0
1531048622710;-;-;0.8909473;0.9627979;11.184742;-0.30434892;-0.014794896;-0.080426954;-16.650002;32.100002;-39.0;24.509474;-7.1321883;4.6773515;1020.71655;-;-;51.52502863;-0.1334877;0.0
1531048622738;-;-;1.0106983;1.21188;11.136841;-0.03590228;0.061371513;-0.052197445;-16.050001;32.550003;-38.4;24.601147;-6.6446695;4.637623;1020.71655;-;-;51.52502863;-0.1334877;0.0
1531048622738;-;-;1.0106983;1.21188;11.136841;-0.03590228;0.061371513;-0.052197445;-16.050001;32.550003;-38.4;24.601147;-6.6446695;4.637623;1020.71655;-;-;51.52502863;-0.1334877;0.0
1531048622739;-;-;1.0106983;1.21188;11.136841;-0.03590228;0.061371513;-0.052197445;-16.5;31.2;-37.2;24.601147;-6.6446695;4.637623;1020.71655;-;-;51.52502863;-0.1334877;0.0
1531048622750;-;-;1.0681788;1.0585986;10.93087;0.09352735;0.08214417;-0.055925872;-16.5;31.2;-37.2;24.694082;-6.3360868;4.6363916;1020.71655;-;-;51.52502863;-0.1334877;0.0
1531048622760;-;-;1.0346485;1.1112891;10.782378;0.13507266;0.08161154;-0.056991134;-16.800001;32.550003;-39.600002;24.754776;-6.269511;4.5687914;1020.71655;-;-;51.52502863;-0.1334877;0.0
1531048622780;-;-;0.8813672;1.0633887;10.121353;0.21869592;0.10398209;-0.05059955;-16.800001;32.25;-39.600002;24.807055;-6.4076552;4.4712253;1020.71655;-;-;51.52502863;-0.1334877;0.0
1531048622772;-;-;0.93405765;1.0585986;10.236314;0.2165654;0.09599261;-0.06071956;-16.800001;32.550003;-39.600002;24.754776;-6.269511;4.5687914;1020.71655;-;-;51.52502863;-0.1334877;0.0
1531048622791;-;-;0.57959473;1.0154883;9.666299;0.2165654;0.079481006;-0.019706879;-16.800001;32.25;-39.600002;24.807055;-6.4076552;4.4712253;1020.7117;-;-;51.52502863;-0.1334877;0.0
1531048622801;-;-;0.5029541;1.0585986;9.599238;0.20324959;0.06509994;-0.0085216025;-16.95;30.6;-39.45;24.848686;-6.6539745;4.3567443;1020.7117;-;-;51.52502863;-0.1334877;0.0
1531048622811;-;-;0.60833496;1.1064991;9.465117;0.15957375;0.00810829;0.034621608;-16.95;30.6;-39.45;24.848686;-6.6539745;4.3567443;1020.7117;-;-;51.52502863;-0.1334877;0.0
1531048622824;-;-;0.81909674;1.2070899;9.613608;0.1324095;-0.0062727802;0.0394153;-16.95;32.7;-39.0;24.85377;-6.8890386;4.277751;1020.7117;-;-;51.52502863;-0.1334877;0.0
1531048622833;-;-;0.9053174;1.22146;9.656719;0.12974635;-0.015327528;0.041013196;-16.95;32.7;-39.0;24.85377;-6.8890386;4.277751;1020.7117;-;-;51.52502863;-0.1334877;0.0
1531048622843;-;-;0.9244776;1.1831397;9.82437;0.1174958;-0.024382275;0.031425815;-16.5;31.500002;-40.95;24.805695;-7.0651345;4.2721796;1020.7117;-;-;51.52502863;-0.1334877;0.0
1531048622854;-;-;0.89573735;1.1639795;9.75731;0.10364736;0.0129019795;-0.015978454;-16.5;31.500002;-40.95;24.805695;-7.0651345;4.2721796;1020.7117;-;-;51.52502863;-0.1334877;0.0
1531048622864;-;-;0.86220706;1.0873389;9.7142;0.10364736;0.0129019795;-0.015978454;-16.050001;30.150002;-39.300003;24.769924;-7.200811;4.298597;1020.7117;-;-;51.52502863;-0.1334877;0.0
1531048622874;-;-;0.6658155;1.1304493;9.7621;0.1009842;0.038468327;-0.009586867;-16.050001;30.150002;-39.300003;24.769924;-7.200811;4.298597;1020.7117;-;-;51.52502863;-0.1334877;0.0
1531048622884;-;-;0.56522465;1.101709;9.6615095;0.08021154;0.016097773;0.007989997;-15.900001;32.4;-38.25;24.785007;-7.3196554;4.294522;1020.7117;-;-;51.52502863;-0.1334877;0.0
1531048622894;-;-;0.50774413;1.1783496;9.560919;0.063699946;0.005445129;0.028230023;-15.900001;32.4;-38.25;24.785007;-7.3196554;4.294522;1020.7117;-;-;51.52502863;-0.1334877;0.0
1531048622905;-;-;0.5939649;1.1352394;9.546548;0.06423257;0.0070430255;0.03994793;-17.25;31.050001;-38.7;24.79507;-7.430973;4.261771;1020.71094;-;-;51.52502863;-0.1334877;0.0
1531048622917;-;-;0.7232959;1.2070899;9.651929;0.05038414;0.016630407;0.050600577;-17.25;31.050001;-38.7;24.79507;-7.430973;4.261771;1020.71094;-;-;51.52502863;-0.1334877;0.0
1531048622928;-;-;0.728086;1.1879297;9.589659;0.048253614;0.0198262;0.057524793;-18.300001;32.4;-39.9;24.76186;-7.5048594;4.253519;1020.71094;-;-;51.52502863;-0.1334877;0.0
1531048622939;-;-;0.6610254;1.22625;9.580078;0.032274645;0.0049124965;0.07510165;-17.550001;31.500002;-40.5;24.76186;-7.5048594;4.253519;1020.71094;-;-;51.52502863;-0.1334877;0.0
1531048622948;-;-;0.67539555;1.3268409;9.508228;-0.012999095;-9.4645796E-4;0.07669955;-17.550001;31.500002;-40.5;24.705465;-7.560051;4.243327;1020.71094;-;-;51.52502863;-0.1334877;0.0
1531048622959;-;-;0.6562354;1.3076807;9.4507475;-0.0412286;0.0022493354;0.08202587;-17.550001;31.500002;-40.5;24.705465;-7.560051;4.243327;1020.71094;-;-;51.52502863;-0.1334877;0.0
1531048622968;-;-;0.7807764;1.3220508;9.584868;-0.08117602;-0.0020117224;0.096406944;-17.85;30.900002;-39.300003;24.633879;-7.5917454;4.2415595;1020.71094;-;-;51.52502863;-0.1334877;0.0
1531048622978;-;-;0.847837;1.2789404;9.699829;-0.08490445;-0.019588586;0.08841746;-15.6;31.650002;-38.7;24.633879;-7.5917454;4.2415595;1020.71094;-;-;51.52502863;-0.1334877;0.0
1531048622991;-;-;0.96758795;1.2693604;10.087823;-0.06626232;-0.044089667;0.059655324;-15.6;31.650002;-38.7;24.535656;-7.5527835;4.25429;1020.71094;-;-;51.52502863;-0.1334877;0.0
1531048623000;-;-;1.0011182;1.1975098;10.279425;-0.05081598;-0.043557037;0.04687215;-18.0;30.300001;-38.25;24.535656;-7.5527835;4.25429;1020.71014;-;-;51.52502863;-0.1334877;0.0
1531048623010;-;-;1.0442286;1.2358302;10.188414;0.028013587;-0.009468573;0.029295284;-18.0;30.300001;-38.25;24.439302;-7.449074;4.2888575;1020.71014;-;-;51.52502863;-0.1334877;0.0
1531048623022;-;-;1.0538087;1.1879297;10.197993;0.034405176;-0.003609619;0.028762653;-18.0;30.300001;-38.25;24.439302;-7.449074;4.2888575;1020.71014;-;-;51.52502863;-0.1334877;0.0
1531048623032;-;-;0.852627;1.2406201;9.733359;0.06423257;0.046457812;0.041545827;-16.5;30.45;-39.600002;24.390337;-7.3851376;4.3455844;1020.71014;-;-;51.52502863;-0.1334877;0.0
1531048623042;-;-;0.852627;1.2454102;9.77168;0.05784099;0.042196754;0.04740478;-18.150002;30.45;-38.850002;24.360785;-7.4163685;4.3573465;1020.71014;-;-;51.52502863;-0.1334877;0.0
1531048623052;-;-;0.9244776;1.2741505;9.503438;0.014697781;0.037935697;0.05859006;-18.150002;30.45;-38.850002;24.360785;-7.4163685;4.3573465;1020.71014;-;-;51.52502863;-0.1334877;0.0
1531048623064;-;-;0.98195803;1.2358302;9.68067;0.005110401;0.03900096;0.06072059;-16.050001;31.2;-39.600002;24.306633;-7.4837413;4.3168225;1020.71014;-;-;51.52502863;-0.1334877;0.0
1531048623074;-;-;1.0729688;1.2933106;9.666299;-0.036967542;0.031011477;0.03036055;-16.050001;31.2;-39.600002;24.306633;-7.4837413;4.3168225;1020.71014;-;-;51.52502863;-0.1334877;0.0
1531048623104;-;-;1.0729688;1.22625;10.241104;-0.03377175;0.032076743;-0.025033202;-17.7;31.050001;-40.2;24.18125;-7.452534;4.2605753;1020.7129;-;-;51.52502863;-0.1334877;0.0
1531048623101;-;-;1.0490186;1.2645704;10.193204;-0.03590228;0.015032508;-0.005325809;-17.7;31.050001;-40.2;24.18125;-7.452534;4.2605753;1020.7129;-;-;51.52502863;-0.1334877;0.0
1531048623111;-;-;1.0873389;1.2310401;10.178833;0.008306194;0.07521995;-0.021304775;-17.7;31.050001;-40.2;24.18125;-7.452534;4.2605753;1020.7129;-;-;51.52502863;-0.1334877;0.0
1531048623122;-;-;0.9627979;1.1879297;10.145303;0.0093714595;0.08374207;-0.027696362;-17.7;31.050001;-40.2;24.18125;-7.452534;4.2605753;1020.7129;-;-;51.52502863;-0.1334877;0.0
1531048623132;-;-;0.78556645;1.1879297;9.814791;0.041329395;0.1141021;-0.030359523;-17.85;29.85;-38.4;24.174644;-7.410615;4.2387443;1020.7129;-;-;51.52502863;-0.1334877;0.0
1531048623143;-;-;0.7664063;1.1352394;9.800421;0.029611483;0.11090631;-0.019706879;-16.650002;31.650002;-39.0;24.19043;-7.4220715;4.1462803;1020.7129;-;-;51.52502863;-0.1334877;0.0
1531048623153;-;-;0.7376661;1.2358302;9.75252;0.012567252;0.08161154;0.009055261;-16.650002;31.650002;-39.0;24.19043;-7.4220715;4.1462803;1020.7129;-;-;51.52502863;-0.1334877;0.0
1531048623163;-;-;0.7041358;1.22625;9.699829;-0.0034117145;0.06829573;0.02077317;-15.750001;31.2;-40.050003;24.202854;-7.4638944;4.0164604;1020.7129;-;-;51.52502863;-0.1334877;0.0
1531048623176;-;-;0.86220706;1.1304493;9.72378;-0.0082054045;0.06509994;0.007989997;-15.750001;31.2;-40.050003;24.202854;-7.4638944;4.0164604;1020.7129;-;-;51.52502863;-0.1334877;0.0
1531048623187;-;-;0.9196875;1.1831397;9.642349;-0.01193383;0.049120974;0.009587893;-15.900001;32.100002;-39.0;24.188509;-7.4752574;3.9241152;1020.7129;-;-;51.52502863;-0.1334877;0.0
1531048623197;-;-;0.7424561;1.1352394;9.431587;-0.046554923;0.05604519;-0.0015973835;-15.900001;32.100002;-39.0;24.188509;-7.4752574;3.9241152;1020.7129;-;-;51.52502863;-0.1334877;0.0
1531048623208;-;-;0.5891748;1.21188;9.489068;-0.07158864;0.033142004;0.015446849;-17.1;32.550003;-39.300003;24.161396;-7.4626303;3.8601584;1020.7113;-;-;51.52502863;-0.1334877;0.0
1531048623218;-;-;0.5125342;1.2310401;9.551338;-0.10514447;0.018228304;0.010120526;-17.1;32.550003;-39.300003;24.161396;-7.4626303;3.8601584;1020.7113;-;-;51.52502863;-0.1334877;0.0
1531048623228;-;-;0.5939649;1.1783496;9.513018;-0.10940498;0.015568828;0.03197318;-17.85;31.500002;-39.300003;24.145357;-7.4182243;3.7990346;1020.7113;-;-;51.52502863;-0.1334877;0.0
1531048623242;-;-;0.6322852;1.1783496;9.833951;-0.13337342;-0.015323841;0.04635425;-17.550001;33.300003;-38.850002;24.120722;-7.3098655;3.7784941;1020.7113;-;-;51.52502863;-0.1334877;0.0
1531048623250;-;-;0.6610254;1.1064991;10.020762;-0.13230817;-0.022780692;0.023451064;-17.550001;33.300003;-38.850002;24.120722;-7.3098655;3.7784941;1020.7113;-;-;51.52502863;-0.1334877;0.0
1531048623260;-;-;0.7232959;1.1064991;10.164463;-0.091828115;0.0070467126;0.033038445;-17.7;32.100002;-37.800003;24.120722;-7.3098655;3.7784941;1020.7113;-;-;51.52502863;-0.1334877;0.0
1531048623274;-;-;0.7041358;0.96758795;9.910591;-0.044423852;0.029949898;0.05327847;-17.7;32.100002;-37.800003;24.084328;-7.157203;3.7920947;1020.7113;-;-;51.52502863;-0.1334877;0.0
1531048623284;-;-;0.7041358;0.96758795;9.910591;-0.044423852;0.029949898;0.05327847;-16.95;31.650002;-38.25;24.084328;-7.157203;3.7920947;1020.7113;-;-;51.52502863;-0.1334877;0.0
1531048623294;-;-;0.5029541;1.0585986;9.599238;-0.043358587;0.051787823;0.07937745;-16.95;31.650002;-38.25;24.043531;-7.0468936;3.7980318;1020.7113;-;-;51.52502863;-0.1334877;0.0
1531048623309;-;-;0.60354495;1.1543995;9.79084;-0.06732703;0.0022530225;0.09535641;-17.25;32.7;-38.25;23.987417;-6.990968;3.772808;1020.71466;-;-;51.52502863;-0.1334877;0.0
1531048623315;-;-;0.67539555;1.2358302;9.83874;-0.06945756;-0.010530151;0.114531174;-17.25;32.7;-38.25;23.987417;-6.990968;3.772808;1020.71466;-;-;51.52502863;-0.1334877;0.0
1531048623325;-;-;0.728086;1.0873389;10.059082;-0.06253334;-0.022780692;0.102813266;-18.0;32.7;-39.0;23.890884;-6.9301233;3.7371373;1020.71466;-;-;51.52502863;-0.1334877;0.0
1531048623335;-;-;0.75203615;1.096919;10.154883;-0.036966998;-0.019052267;0.093758516;-18.0;32.7;-39.0;23.890884;-6.9301233;3.7371373;1020.71466;-;-;51.52502863;-0.1334877;0.0
1531048623345;-;-;0.68018556;1.1352394;10.0063925;-0.005009065;-0.009997519;0.083638504;-17.1;31.800001;-40.5;23.773054;-6.841945;3.7645943;1020.71466;-;-;51.52502863;-0.1334877;0.0
1531048623355;-;-;0.6706055;1.1448194;10.054293;0.0077741086;0.0022530225;0.08310588;-17.1;31.800001;-40.5;23.773054;-6.841945;3.7645943;1020.71466;-;-;51.52502863;-0.1334877;0.0
1531048623365;-;-;0.7232959;1.1831397;10.126143;0.01789412;1.224936E-4;0.080975346;-15.6;31.35;-38.7;23.672516;-6.7900925;3.797602;1020.71466;-;-;51.52502863;-0.1334877;0.0
1531048623376;-;-;0.7568262;1.1543995;10.111773;0.021089913;0.024090944;0.07564902;-15.6;31.35;-38.7;23.672516;-6.7900925;3.797602;1020.71466;-;-;51.52502863;-0.1334877;0.0
1531048623386;-;-;0.87178713;1.1256592;10.197993;0.016828855;0.001187758;0.05594163;-14.85;29.7;-38.25;23.579735;-6.7868123;3.8128858;1020.71466;-;-;51.52502863;-0.1334877;0.0
1531048623396;-;-;0.9053174;1.2022998;10.202784;0.029079396;0.0150361955;0.052213207;-14.85;29.7;-38.25;23.579735;-6.7868123;3.8128858;1020.71466;-;-;51.52502863;-0.1334877;0.0
1531048623406;-;-;0.9196875;1.1879297;10.020762;0.035470985;0.041135177;0.0388974;-15.150001;30.900002;-38.4;23.488403;-6.803173;3.813376;1020.71576;-;-;51.52502863;-0.1334877;0.0
1531048623416;-;-;0.852627;1.1879297;10.011182;0.038666777;0.061907835;0.017592108;-15.150001;30.900002;-38.4;23.488403;-6.803173;3.813376;1020.71576;-;-;51.52502863;-0.1334877;0.0
1531048623427;-;-;0.71371585;1.2070899;9.972861;0.021622546;0.04433097;0.030907916;-16.650002;32.7;-38.7;23.421623;-6.8301873;3.800398;1020.71576;-;-;51.52502863;-0.1334877;0.0
1531048623437;-;-;0.6849756;1.2454102;9.85311;0.023220442;0.03634149;0.004808936;-16.35;30.6;-39.9;23.421623;-6.8301873;3.800398;1020.71576;-;-;51.52502863;-0.1334877;0.0
1531048623449;-;-;0.82388675;1.1735597;9.75731;0.025350971;0.03740675;0.0042763036;-16.35;30.6;-39.9;23.381723;-6.871978;3.745034;1020.71576;-;-;51.52502863;-0.1334877;0.0
1531048623458;-;-;0.9053174;1.1208692;9.541759;0.022687811;0.037939385;0.011733154;-15.750001;31.500002;-37.65;23.357758;-6.900227;3.7000878;1020.71576;-;-;51.52502863;-0.1334877;0.0
1531048623468;-;-;0.6849756;1.3172607;9.68067;-0.011933284;0.034743592;-0.0037131798;-15.750001;31.500002;-37.65;23.357758;-6.900227;3.7000878;1020.71576;-;-;51.52502863;-0.1334877;0.0
1531048623479;-;-;0.78556645;1.2310401;9.80521;-0.019390136;0.019297253;-0.0031805476;-15.450001;31.800001;-40.95;23.339022;-6.9237576;3.6522539;1020.71576;-;-;51.52502863;-0.1334877;0.0
1531048623488;-;-;0.7807764;1.1112891;9.81958;-0.042825952;-0.006269093;-0.010104766;-15.450001;31.800001;-40.95;23.339022;-6.9237576;3.6522539;1020.71576;-;-;51.52502863;-0.1334877;0.0
1531048623499;-;-;0.852627;1.1448194;9.867481;-0.040695425;-0.0025406675;-0.0037131798;-17.1;30.45;-37.65;23.337488;-6.904762;3.6255205;1020.70996;-;-;51.52502863;-0.1334877;0.0
1531048623510;-;-;0.67539555;1.1639795;10.073453;-0.025781723;-0.013193312;0.0021457747;-17.1;30.45;-37.65;23.337488;-6.904762;3.6255205;1020.70996;-;-;51.52502863;-0.1334877;0.0
1531048623522;-;-;0.6849756;1.1352394;10.011182;-0.012465917;-0.017987002;0.03197318;-16.800001;31.500002;-40.5;23.346779;-6.8590746;3.632206;1020.70996;-;-;51.52502863;-0.1334877;0.0
1531048623530;-;-;0.67539555;1.0442286;10.068663;0.0051109474;-0.023313325;0.050082676;-16.800001;31.500002;-40.5;23.346779;-6.8590746;3.632206;1020.70996;-;-;51.52502863;-0.1334877;0.0
1531048623541;-;-;0.68018556;1.1304493;10.068663;0.0072414763;-0.013725944;0.030907916;-18.6;31.800001;-37.65;23.338326;-6.834754;3.6526253;1020.70996;-;-;51.52502863;-0.1334877;0.0
1531048623550;-;-;0.74724615;1.0681788;10.164463;0.032807823;-0.017987002;0.059670057;-18.6;31.800001;-37.65;23.338326;-6.834754;3.6526253;1020.70996;-;-;51.52502863;-0.1334877;0.0
1531048623561;-;-;0.7232959;1.0777588;10.250684;0.054113112;-0.013725944;0.06712691;-16.800001;31.500002;-40.050003;23.294218;-6.8396654;3.676589;1020.70996;-;-;51.52502863;-0.1334877;0.0
1531048623570;-;-;0.7568262;1.1352394;10.260264;0.08607105;-0.009997519;0.06979007;-16.800001;31.500002;-40.050003;23.294218;-6.8396654;3.676589;1020.70996;-;-;51.52502863;-0.1334877;0.0
1531048623580;-;-;0.7041358;1.1831397;10.159674;0.09991949;0.0017203903;0.06765954;-16.650002;31.050001;-38.25;23.230213;-6.8807745;3.7019875;1020.70996;-;-;51.52502863;-0.1334877;0.0
1531048623590;-;-;0.7376661;1.0633887;9.642349;0.10258265;0.023025678;0.059137426;-16.650002;31.050001;-38.25;23.230213;-6.8807745;3.7019875;1020.70996;-;-;51.52502863;-0.1334877;0.0
1531048623601;-;-;0.8047266;1.0538087;9.604029;0.09832159;0.027819369;0.06499638;-16.800001;31.800001;-39.600002;23.153408;-6.9806204;3.7100685;1020.721;-;-;51.52502863;-0.1334877;0.0
1531048623611;-;-;0.7807764;1.1304493;9.570498;0.07115734;-0.00786699;0.06925744;-16.800001;31.800001;-39.600002;23.153408;-6.9806204;3.7100685;1020.721;-;-;51.52502863;-0.1334877;0.0
1531048623622;-;-;0.7807764;1.0681788;9.73815;0.05571101;-0.03183544;0.047419515;-16.5;31.800001;-40.050003;23.081348;-7.085639;3.6962523;1020.721;-;-;51.52502863;-0.1334877;0.0
1531048623632;-;-;0.9627979;1.2166699;9.800421;0.042927835;-0.060597584;0.046886884;-16.5;31.800001;-40.050003;23.081348;-7.085639;3.6962523;1020.721;-;-;51.52502863;-0.1334877;0.0
1531048623642;-;-;0.90052736;1.2310401;9.929751;0.045590997;-0.068587065;0.01812474;-18.150002;33.300003;-40.050003;23.017092;-7.1593413;3.7159667;1020.721;-;-;51.52502863;-0.1334877;0.0
1531048623653;-;-;0.8909473;1.1639795;9.972861;0.059439436;-0.07071759;0.011733154;-18.150002;33.300003;-40.050003;23.017092;-7.1593413;3.7159667;1020.721;-;-;51.52502863;-0.1334877;0.0
1531048623663;-;-;0.8334668;1.22146;9.867481;0.07595104;-0.056336522;0.0037436713;-14.85;31.050001;-40.65;22.980124;-7.208736;3.7882776;1020.721;-;-;51.52502863;-0.1334877;0.0
1531048623686;-;-;0.7424561;1.1831397;9.70941;0.057308905;-4.1013863E-4;0.018657373;-18.150002;31.800001;-39.300003;22.987074;-7.278258;3.862682;1020.721;-;-;51.52502863;-0.1334877;0.0
1531048623675;-;-;0.79993653;1.2502003;9.77168;0.0786142;-0.03716176;0.004808936;-14.85;31.050001;-40.65;22.980124;-7.208736;3.7882776;1020.721;-;-;51.52502863;-0.1334877;0.0
1531048623694;-;-;0.7376661;1.1975098;9.589659;0.03653625;0.0027856547;0.019190006;-18.150002;31.800001;-39.300003;22.987074;-7.278258;3.862682;1020.721;-;-;51.52502863;-0.1334877;0.0
1531048623704;-;-;0.90052736;1.22146;9.565708;0.012567798;0.03261306;0.025581593;-18.150002;31.800001;-38.4;22.989773;-7.3580017;3.9024148;1020.71375;-;-;51.52502863;-0.1334877;0.0
1531048623715;-;-;0.93405765;1.2166699;9.469908;-0.009270122;0.02568884;0.008537361;-18.150002;31.800001;-38.4;22.989773;-7.3580017;3.9024148;1020.71375;-;-;51.52502863;-0.1334877;0.0
1531048623724;-;-;0.977168;1.1208692;9.72857;-0.022053484;0.010773874;0.0021407234;-19.2;32.25;-40.050003;22.962954;-7.4012957;3.8977766;1020.71375;-;-;51.52502863;-0.1334877;0.0
1531048623734;-;-;0.9915381;1.2597803;9.75731;-0.025249276;-0.003074564;-0.009577186;-19.2;32.25;-40.050003;22.962954;-7.4012957;3.8977766;1020.71375;-;-;51.52502863;-0.1334877;0.0
1531048623746;-;-;0.93405765;1.22146;9.877061;-0.011933471;-0.02331459;-0.021295095;-16.5;31.2;-39.300003;22.939281;-7.387803;3.874583;1020.71375;-;-;51.52502863;-0.1334877;0.0
1531048623755;-;-;0.9244776;1.2549903;9.910591;0.008306553;-0.039293557;-0.037806693;-16.5;31.2;-39.300003;22.939281;-7.387803;3.874583;1020.71375;-;-;51.52502863;-0.1334877;0.0
1531048623766;-;-;0.8765772;1.2358302;9.924961;0.034938164;-0.031836703;-0.036741428;-17.1;31.800001;-40.5;22.946377;-7.3645835;3.8818636;1020.71375;-;-;51.52502863;-0.1334877;0.0
1531048623776;-;-;0.89573735;1.22625;9.939331;0.04346028;-0.01425984;-0.038339324;-17.550001;32.25;-39.600002;22.946377;-7.3645835;3.8818636;1020.71375;-;-;51.52502863;-0.1334877;0.0
1531048623788;-;-;0.847837;1.2885206;9.73815;0.032275002;0.023557046;-0.037806693;-17.550001;32.25;-39.600002;22.984856;-7.373509;3.919356;1020.71375;-;-;51.52502863;-0.1334877;0.0
1531048623798;-;-;0.8143067;1.2981006;9.637559;0.027481314;0.03154653;-0.02928458;-16.95;31.35;-39.0;23.031025;-7.4169197;3.9331515;1020.7144;-;-;51.52502863;-0.1334877;0.0
1531048623808;-;-;0.9196875;1.2502003;9.81958;-0.01885769;0.076287635;-0.041535117;-16.95;31.35;-39.0;23.031025;-7.4169197;3.9331515;1020.7144;-;-;51.52502863;-0.1334877;0.0
1531048623818;-;-;0.8909473;1.2837305;9.85311;-0.016194528;0.078418165;-0.030349843;-17.25;31.050001;-38.7;23.060555;-7.444391;3.8891912;1020.7144;-;-;51.52502863;-0.1334877;0.0
1531048623828;-;-;0.8430469;1.21188;9.929751;-0.02418401;0.10291925;-0.05378566;-17.25;31.050001;-38.7;23.060555;-7.444391;3.8891912;1020.7144;-;-;51.52502863;-0.1334877;0.0
1531048623839;-;-;0.79035646;1.2597803;10.035132;-0.015129265;0.101321355;-0.03993722;-17.1;32.850002;-37.2;23.090458;-7.427675;3.7892022;1020.7144;-;-;51.52502863;-0.1334877;0.0
1531048623849;-;-;0.79993653;1.1352394;10.178833;0.033872902;0.13807298;-0.017034037;-17.1;32.850002;-37.2;23.090458;-7.427675;3.7892022;1020.7144;-;-;51.52502863;-0.1334877;0.0
1531048623859;-;-;0.8095166;1.1831397;10.289004;0.08553822;0.15937828;-0.013305611;-16.800001;32.850002;-39.300003;23.122255;-7.4125905;3.6649358;1020.7144;-;-;51.52502863;-0.1334877;0.0
1531048623870;-;-;0.6466553;1.1112891;10.255474;0.15318252;0.1913362;0.01598916;-16.800001;32.850002;-39.300003;23.122255;-7.4125905;3.6649358;1020.7144;-;-;51.52502863;-0.1334877;0.0
1531048623879;-;-;0.53169435;1.1208692;10.284214;0.17235728;0.19399936;0.031435497;-16.35;29.7;-38.25;23.122993;-7.4723907;3.4990277;1020.7144;-;-;51.52502863;-0.1334877;0.0
1531048623889;-;-;0.4263135;1.2789404;10.188414;0.2208268;0.148193;0.0942861;-16.35;29.7;-38.25;23.122993;-7.4723907;3.4990277;1020.7144;-;-;51.52502863;-0.1334877;0.0
1531048623899;-;-;0.37362307;1.341211;10.015972;0.23147945;0.12688771;0.100677684;-15.6;31.35;-40.2;23.065163;-7.6540685;3.292623;1020.71387;-;-;51.52502863;-0.1334877;0.0
1531048623910;-;-;0.21076173;1.21188;10.054293;0.24479526;0.023557046;0.18163778;-15.6;31.35;-40.2;23.065163;-7.6540685;3.292623;1020.71387;-;-;51.52502863;-0.1334877;0.0
1531048623919;-;-;0.244292;1.1735597;10.020762;0.2320121;-0.017455634;0.20560622;-16.35;32.100002;-40.65;22.932001;-7.9047575;3.1583626;1020.71387;-;-;51.52502863;-0.1334877;0.0
1531048623930;-;-;0.5221143;1.3843213;9.685459;0.1627699;-0.16765791;0.35687378;-16.35;32.100002;-40.65;22.932001;-7.9047575;3.1583626;1020.71387;-;-;51.52502863;-0.1334877;0.0
1531048623940;-;-;0.8813672;1.8633252;9.460327;0.1595741;-0.15274422;0.32757902;-16.800001;31.500002;-37.2;22.702751;-8.163102;3.187207;1020.71387;-;-;51.52502863;-0.1334877;0.0
1531048623950;-;-;1.0729688;1.5376027;9.259146;0.11802879;-0.055805154;0.24821681;-16.800001;31.500002;-37.2;22.702751;-8.163102;3.187207;1020.71387;-;-;51.52502863;-0.1334877;0.0
1531048623960;-;-;1.0106983;1.4322218;9.057964;0.07648347;-0.017988266;0.19388832;-14.85;30.300001;-40.65;22.338505;-8.338102;3.4256911;1020.71387;-;-;51.52502863;-0.1334877;0.0
1531048623970;-;-;0.8909473;1.6238233;9.321417;-0.043891404;-0.0046724607;0.13689667;-14.85;30.300001;-40.65;22.338505;-8.338102;3.4256911;1020.71387;-;-;51.52502863;-0.1334877;0.0
1531048623981;-;-;1.0729688;1.5567628;9.580078;-0.09182831;-0.031836703;0.113993496;-17.85;30.45;-39.300003;22.072248;-8.447256;3.5307333;1020.71387;-;-;51.52502863;-0.1334877;0.0
1531048623991;-;-;1.2645704;1.4274317;9.75731;-0.1264494;-0.038228292;0.0628608;-17.85;30.45;-39.300003;22.072248;-8.447256;3.5307333;1020.71387;-;-;51.52502863;-0.1334877;0.0
1531048624002;-;-;1.3555812;1.3843213;9.81;-0.124318875;-0.017455634;0.0016080912;-14.85;31.35;-37.050003;21.915907;-8.386968;3.5673058;1020.7217;-;-;51.52502863;-0.1334877;0.0
1531048624013;-;-;1.4178516;1.2741505;9.7812605;-0.124318875;0.035274956;-0.084145695;-14.85;31.35;-37.050003;21.915907;-8.386968;3.5673058;1020.7217;-;-;51.52502863;-0.1334877;0.0
1531048624023;-;-;0.91010743;1.2981006;10.365645;-0.10088306;0.053917084;-0.14166999;-16.5;30.45;-40.5;21.8643;-8.2425585;3.6168664;1020.7217;-;-;51.52502863;-0.1334877;0.0
1531048624033;-;-;1.1208692;1.5471827;9.972861;-0.05507668;0.16843303;-0.16617107;-16.5;30.45;-40.5;21.8643;-8.2425585;3.6168664;1020.7217;-;-;51.52502863;-0.1334877;0.0
1531048624043;-;-;0.98195803;1.2933106;10.044712;-0.022053484;0.2696331;-0.21251006;-17.1;30.900002;-38.100002;21.96153;-8.111993;3.5701945;1020.7217;-;-;51.52502863;-0.1334877;0.0
1531048624053;-;-;0.6179151;1.2885206;10.193204;-0.01672716;0.22808783;-0.23328273;-16.650002;32.4;-38.25;22.123474;-8.05912;3.3436306;1020.7217;-;-;51.52502863;-0.1334877;0.0
1531048624063;-;-;0.2682422;1.2645704;10.083033;-0.014064;0.13061613;-0.18215004;-16.650002;32.4;-38.25;22.123474;-8.05912;3.3436306;1020.7217;-;-;51.52502863;-0.1334877;0.0
1531048624074;-;-;0.26345217;1.1879297;9.963282;-0.0012808265;0.114104524;-0.14539841;-14.400001;31.800001;-38.100002;22.3324;-8.056451;3.0653093;1020.7217;-;-;51.52502863;-0.1334877;0.0
1531048624084;-;-;0.4167334;1.3603711;9.891431;-7.4819435E-4;0.12635507;-0.11184257;-14.400001;31.800001;-38.100002;22.3324;-8.056451;3.0653093;1020.7217;-;-;51.52502863;-0.1334877;0.0
1531048624094;-;-;0.48379397;1.3220508;9.857901;0.013100243;0.11996348;-0.10172256;-17.1;32.25;-39.600002;22.3324;-8.056451;3.0653093;1020.7211;-;-;51.52502863;-0.1334877;0.0
1531048624104;-;-;0.5364844;1.2741505;9.867481;0.012034979;0.037938118;-0.0809499;-17.1;32.25;-39.600002;22.479374;-8.060646;2.9031644;1020.7211;-;-;51.52502863;-0.1334877;0.0
1531048624115;-;-;0.5125342;1.2885206;9.671089;0.013632876;0.00970861;-0.07402568;-14.400001;31.800001;-36.45;22.577463;-8.07472;2.7629452;1020.7211;-;-;51.52502863;-0.1334877;0.0
1531048624125;-;-;0.5604346;1.3172607;9.637559;8.4970234E-4;-0.014792473;-0.07455832;-14.400001;31.800001;-36.45;22.577463;-8.07472;2.7629452;1020.7211;-;-;51.52502863;-0.1334877;0.0
1531048624135;-;-;0.60833496;1.3507911;9.656719;-0.0039439877;-0.0062703574;-0.06497094;-15.150001;30.150002;-38.850002;22.663605;-8.091232;2.7329004;1020.7211;-;-;51.52502863;-0.1334877;0.0
1531048624145;-;-;0.5939649;1.2597803;9.532178;-0.03749982;-0.007335622;-0.07082989;-15.150001;30.150002;-38.850002;22.663605;-8.091232;2.7329004;1020.7211;-;-;51.52502863;-0.1334877;0.0
1531048624156;-;-;0.64186525;1.2645704;9.575289;-0.047087196;-0.020118795;-0.06550357;-15.3;30.6;-37.5;22.74238;-8.086333;2.7314465;1020.7211;-;-;51.52502863;-0.1334877;0.0
1531048624167;-;-;0.5556446;1.2693604;9.81;-0.05241352;-0.03609776;-0.058046717;-15.3;30.6;-37.5;22.74238;-8.086333;2.7314465;1020.7211;-;-;51.52502863;-0.1334877;0.0
1531048624177;-;-;0.51732427;1.3172607;9.905801;-0.049217727;-0.046217777;-0.04899197;-15.450001;29.85;-36.0;22.818985;-8.040032;2.7389586;1020.7211;-;-;51.52502863;-0.1334877;0.0
1531048624187;-;-;0.57001466;1.2693604;9.867481;-0.026314542;-0.034499865;-0.034078266;-15.450001;29.85;-36.0;22.818985;-8.040032;2.7389586;1020.7211;-;-;51.52502863;-0.1334877;0.0
1531048624197;-;-;0.5939649;1.2693604;9.77168;-0.01672716;-0.011596679;-0.043665648;-14.700001;30.900002;-38.850002;22.88698;-7.983113;2.7786095;1020.7206;-;-;51.52502863;-0.1334877;0.0
1531048624208;-;-;0.7376661;1.331631;9.5561285;-0.030042967;0.0033170227;-0.04206775;-14.700001;30.900002;-38.850002;22.88698;-7.983113;2.7786095;1020.7206;-;-;51.52502863;-0.1334877;0.0
1531048624217;-;-;0.8047266;1.2933106;9.508228;-0.048685092;0.008643345;-0.050057232;-15.450001;31.2;-40.050003;22.935333;-7.9565554;2.7936587;1020.7206;-;-;51.52502863;-0.1334877;0.0
1531048624227;-;-;0.63707525;1.3699512;9.513018;-0.08597041;-0.0014838307;-0.049553227;-15.450001;31.2;-40.050003;22.935333;-7.9565554;2.7936587;1020.7206;-;-;51.52502863;-0.1334877;0.0
1531048624237;-;-;0.64186525;1.2549903;9.541759;-0.12325467;-9.511985E-4;-0.05221639;-13.650001;30.900002;-37.2;22.985556;-7.9096284;2.781355;1020.7206;-;-;51.52502863;-0.1334877;0.0
1531048624247;-;-;0.67539555;1.2022998;9.493857;-0.1504189;1.14065944E-4;-0.0623364;-13.650001;30.900002;-37.2;22.985556;-7.9096284;2.781355;1020.7206;-;-;51.52502863;-0.1334877;0.0
1531048624258;-;-;0.60354495;1.22146;9.651929;-0.1701263;0.013429872;-0.054346915;-14.400001;30.45;-37.2;23.051863;-7.796388;2.7709095;1020.7206;-;-;51.52502863;-0.1334877;0.0
1531048624268;-;-;0.68976563;1.2597803;9.766891;-0.18770316;0.020886723;-0.06020587;-14.400001;30.45;-37.2;23.051863;-7.796388;2.7709095;1020.7206;-;-;51.52502863;-0.1334877;0.0
1531048624278;-;-;0.7376661;1.1831397;10.015972;-0.18557264;0.059236243;-0.070858516;-15.6;30.000002;-38.7;23.117828;-7.622194;2.74813;1020.7206;-;-;51.52502863;-0.1334877;0.0
1531048624288;-;-;0.7664063;1.1687696;9.968072;-0.17545262;0.0949226;-0.08044589;-15.6;30.000002;-38.7;23.117828;-7.622194;2.74813;1020.7214;-;-;51.52502863;-0.1334877;0.0
1531048624299;-;-;0.6322852;1.2310401;10.102193;-0.16746314;0.09066155;-0.10068592;-14.1;30.150002;-36.75;23.182318;-7.4160986;2.6940289;1020.7214;-;-;51.52502863;-0.1334877;0.0
1531048624309;-;-;0.5508545;1.1783496;10.039923;-0.13071153;0.07894364;-0.09322907;-14.1;30.150002;-36.75;23.182318;-7.4160986;2.6940289;1020.7214;-;-;51.52502863;-0.1334877;0.0
1531048624319;-;-;0.44547364;1.1304493;10.169253;-0.0939599;0.06882363;-0.07831537;-14.1;31.800001;-39.300003;23.264963;-7.223047;2.5772114;1020.7214;-;-;51.52502863;-0.1334877;0.0
1531048624329;-;-;0.43110353;1.1448194;10.178833;-0.055077743;0.058170978;-0.0639343;-14.1;31.800001;-39.300003;23.264963;-7.223047;2.5772114;1020.7214;-;-;51.52502863;-0.1334877;0.0
1531048624339;-;-;0.4406836;1.2022998;10.078242;-0.030044029;0.04432254;-0.061271135;-16.050001;30.150002;-40.050003;23.355068;-7.082796;2.4786282;1020.7214;-;-;51.52502863;-0.1334877;0.0
1531048624350;-;-;0.45984375;1.1496094;9.929751;-0.019924015;0.03686569;-0.0458248;-16.050001;30.150002;-40.050003;23.355068;-7.082796;2.4786282;1020.7214;-;-;51.52502863;-0.1334877;0.0
1531048624359;-;-;0.53169435;1.1639795;9.920172;-0.007673474;0.029408839;-0.039965846;-14.85;29.7;-38.25;23.426601;-7.0260677;2.406248;1020.7214;-;-;51.52502863;-0.1334877;0.0
1531048624369;-;-;0.51732427;1.1064991;9.982442;-0.0055429456;0.017158296;-0.051151123;-14.85;29.7;-38.25;23.426601;-7.0260677;2.406248;1020.7214;-;-;51.52502863;-0.1334877;0.0
1531048624379;-;-;0.52690434;1.1639795;9.877061;-0.0028797842;0.014495135;-0.034639522;-14.250001;32.100002;-39.0;23.4814;-7.0086455;2.357745;1020.7214;-;-;51.52502863;-0.1334877;0.0
1531048624389;-;-;0.5508545;1.1160791;9.987232;-7.492554E-4;0.0054403883;-0.04049848;-14.250001;32.100002;-39.0;23.4814;-7.0086455;2.357745;1020.71906;-;-;51.52502863;-0.1334877;0.0
1531048624399;-;-;0.5460645;1.1687696;10.030342;-2.1662316E-4;0.014495135;-0.043161638;-12.450001;31.050001;-38.25;23.53234;-7.0037274;2.3340993;1020.71906;-;-;51.52502863;-0.1334877;0.0
1531048624410;-;-;0.5843848;1.2070899;9.977652;0.005642331;0.026213044;-0.05274902;-12.450001;31.050001;-38.25;23.53234;-7.0037274;2.3340993;1020.71906;-;-;51.52502863;-0.1334877;0.0
1531048624420;-;-;0.6706055;1.1448194;9.963282;-2.1662316E-4;0.038996216;-0.049553227;-14.250001;29.7;-39.45;23.579937;-7.004045;2.3240967;1020.71906;-;-;51.52502863;-0.1334877;0.0
1531048624430;-;-;0.6514453;1.1256592;9.939331;0.005109699;0.062432032;-0.061271135;-14.250001;29.7;-39.45;23.579937;-7.004045;2.3240967;1020.71906;-;-;51.52502863;-0.1334877;0.0
1531048624471;-;-;0.52690434;1.1831397;9.80521;-0.014597693;0.008636181;-0.070858516;-14.250001;29.250002;-39.9;23.684761;-7.015575;2.2078028;1020.71906;-;-;51.52502863;-0.1334877;0.0
1531048624461;-;-;0.45984375;1.1831397;9.881851;-0.008738739;0.024082515;-0.051683754;-14.250001;29.250002;-39.9;23.684761;-7.015575;2.2078028;1020.71906;-;-;51.52502863;-0.1334877;0.0
1531048624451;-;-;0.43589357;1.1927198;9.843531;-0.007673474;0.05444255;-0.055944815;-15.3;30.000002;-39.45;23.628214;-7.0101867;2.2834754;1020.71906;-;-;51.52502863;-0.1334877;0.0
1531048624450;-;-;0.43589357;1.1927198;9.843531;-0.007673474;0.05444255;-0.055944815;-15.3;30.000002;-39.45;23.628214;-7.0101867;2.2834754;1020.71906;-;-;51.52502863;-0.1334877;0.0
1531048624481;-;-;0.46463382;1.2022998;9.929751;3.1600907E-4;-0.021191224;-0.06446693;-16.650002;30.6;-40.2;23.734024;-7.0079517;2.1451976;1020.71906;-;-;51.52502863;-0.1334877;0.0
1531048624491;-;-;0.49337405;1.2166699;9.992022;0.009370757;-0.036104925;-0.079913266;-16.650002;30.6;-40.2;23.734024;-7.0079517;2.1451976;1020.7154;-;-;51.52502863;-0.1334877;0.0
1531048624502;-;-;0.5221143;1.1208692;9.948912;0.02481709;-0.031843867;-0.07298905;-15.750001;30.45;-38.4;23.806839;-6.9978924;2.1301916;1020.7154;-;-;51.52502863;-0.1334877;0.0
1531048624512;-;-;0.46463382;1.1304493;9.877061;0.02481709;-0.037702825;-0.069793254;-15.750001;30.45;-38.4;23.806839;-6.9978924;2.1301916;1020.7154;-;-;51.52502863;-0.1334877;0.0
1531048624522;-;-;0.3784131;1.0202783;9.82437;0.029078148;-0.010538579;-0.046357434;-15.750001;29.400002;-38.850002;23.889482;-7.01499;2.1613555;1020.7154;-;-;51.52502863;-0.1334877;0.0
1531048624532;-;-;0.34967285;1.0538087;9.81958;0.026414989;-0.0062775207;-0.02398688;-15.750001;29.400002;-38.850002;23.889482;-7.01499;2.1613555;1020.7154;-;-;51.52502863;-0.1334877;0.0
1531048624542;-;-;0.34009278;1.1208692;9.77647;0.022686563;0.02248462;0.0037099968;-13.950001;30.000002;-38.7;23.960443;-7.051673;2.1910582;1020.7154;-;-;51.52502863;-0.1334877;0.0
1531048624552;-;-;0.46463382;1.22625;9.733359;0.01736024;0.04006148;0.014895274;-14.250001;30.000002;-38.25;23.98041;-7.084579;2.1853542;1020.7154;-;-;51.52502863;-0.1334877;0.0
1531048624563;-;-;0.47900394;1.22146;9.546548;-0.023652442;0.0304741;0.014895274;-14.250001;30.000002;-38.25;23.98041;-7.084579;2.1853542;1020.7154;-;-;51.52502863;-0.1334877;0.0
1531048624573;-;-;0.52690434;1.2502003;9.608819;-0.051349316;0.033137262;0.0069057904;-14.55;30.300001;-38.25;23.959787;-7.0906286;2.1481152;1020.7154;-;-;51.52502863;-0.1334877;0.0
1531048624583;-;-;0.5508545;1.1639795;9.877061;-0.074785136;0.023549883;0.007971055;-14.55;30.300001;-38.25;23.959787;-7.0906286;2.1481152;1020.71124;-;-;51.52502863;-0.1334877;0.0
1531048624593;-;-;0.46942386;1.0681788;9.963282;-0.080644086;0.01076671;-1.8428778E-5;-13.200001;30.6;-37.800003;23.947784;-7.024128;2.1178284;1020.71124;-;-;51.52502863;-0.1334877;0.0
1531048624603;-;-;0.49337405;1.1208692;10.035132;-0.066795655;0.024615148;0.008503688;-13.200001;30.6;-37.800003;23.947784;-7.024128;2.1178284;1020.71124;-;-;51.52502863;-0.1334877;0.0
1531048624614;-;-;0.47900394;1.1064991;10.121353;-0.054012477;0.0304741;0.0037099968;-14.700001;30.150002;-38.850002;23.947178;-6.9362245;2.100441;1020.71124;-;-;51.52502863;-0.1334877;0.0
1531048624623;-;-;0.57001466;1.2022998;10.217154;-0.020456648;0.02994147;0.0010468357;-14.700001;30.150002;-38.850002;23.947178;-6.9362245;2.100441;1020.71124;-;-;51.52502863;-0.1334877;0.0
1531048624633;-;-;0.51732427;1.2022998;10.183623;-0.01619559;0.03686569;-0.0053447513;-13.35;30.45;-38.4;23.935831;-6.877973;2.0646048;1020.71124;-;-;51.52502863;-0.1334877;0.0
1531048624643;-;-;0.4981641;1.1208692;10.226734;0.016294975;0.015560401;-0.01706266;-13.35;30.45;-38.4;23.935831;-6.877973;2.0646048;1020.71124;-;-;51.52502863;-0.1334877;0.0
1531048624653;-;-;0.45026368;1.1543995;10.145303;0.03227394;0.02514778;-0.013866867;-13.35;29.85;-40.95;23.937883;-6.868161;2.0284765;1020.71124;-;-;51.52502863;-0.1334877;0.0
1531048624664;-;-;0.43110353;1.0777588;9.948912;0.0381329;0.02781094;-0.026117409;-13.35;29.85;-40.95;23.937883;-6.868161;2.0284765;1020.71124;-;-;51.52502863;-0.1334877;0.0
1531048624674;-;-;0.39278322;1.1160791;9.74773;0.03174131;0.032072;-0.022388984;-13.650001;31.2;-38.4;23.95996;-6.9038553;2.0031538;1020.71124;-;-;51.52502863;-0.1334877;0.0
1531048624684;-;-;0.4167334;1.1160791;9.74294;8.4864127E-4;0.033137262;-0.019725822;-13.650001;31.2;-38.4;23.95996;-6.9038553;2.0031538;1020.7063;-;-;51.52502863;-0.1334877;0.0
1531048624695;-;-;0.44547364;1.096919;9.814791;8.4864127E-4;0.048050966;-0.02185635;-14.55;30.000002;-39.45;23.983416;-6.934228;1.9657731;1020.7063;-;-;51.52502863;-0.1334877;0.0
1531048624705;-;-;0.4742139;1.092129;9.929751;3.1600907E-4;0.048583597;-0.02398688;-14.55;30.000002;-39.45;23.983416;-6.934228;1.9657731;1020.7063;-;-;51.52502863;-0.1334877;0.0
1531048624715;-;-;0.4742139;1.1112891;9.872271;8.4864127E-4;0.045920435;-0.026117409;-14.700001;30.45;-38.4;24.00103;-6.9332066;1.9201648;1020.7063;-;-;51.52502863;-0.1334877;0.0
1531048624725;-;-;0.48379397;1.0729688;9.80521;8.4761146E-4;0.035793472;-0.019753603;-14.700001;30.45;-38.4;24.00103;-6.9332066;1.9201648;1020.7063;-;-;51.52502863;-0.1334877;0.0
1531048624736;-;-;0.45505372;1.0681788;9.7142;-0.012468195;0.040587164;-0.018688338;-15.3;30.300001;-39.45;24.026274;-6.931518;1.8670338;1020.7063;-;-;51.52502863;-0.1334877;0.0
1531048624746;-;-;0.45984375;1.0825489;9.733359;-0.009805033;0.038456634;-0.020818869;-15.3;30.300001;-39.45;24.026274;-6.931518;1.8670338;1020.7063;-;-;51.52502863;-0.1334877;0.0
1531048624756;-;-;0.50774413;1.1160791;9.78605;-0.022055576;0.026738726;-0.022416765;-15.150001;32.550003;-39.600002;24.045725;-6.9247427;1.8211519;1020.7063;-;-;51.52502863;-0.1334877;0.0
1531048624766;-;-;0.40715334;1.101709;9.77647;-0.030045059;0.01129239;-0.018688338;-15.150001;32.550003;-39.600002;24.045725;-6.9247427;1.8211519;1020.7063;-;-;51.52502863;-0.1334877;0.0
1531048624776;-;-;0.2921924;1.0729688;9.77647;-0.022055576;0.0054334356;-0.022416765;-14.400001;30.45;-38.4;24.066807;-6.9019237;1.7872368;1020.7063;-;-;51.52502863;-0.1334877;0.0
1531048624787;-;-;0.3879932;1.1208692;9.6615095;-0.036969274;0.015020815;-0.014959913;-14.400001;30.45;-38.4;24.066807;-6.9019237;1.7872368;1020.7133;-;-;51.52502863;-0.1334877;0.0
1531048624797;-;-;0.364043;1.0442286;9.685459;-0.048687182;0.012357654;-0.0069704293;-14.55;29.7;-39.0;24.086603;-6.8750725;1.77273;1020.7133;-;-;51.52502863;-0.1334877;0.0
1531048624808;-;-;0.39757326;1.0873389;9.814791;-0.06360088;0.0049008033;-0.017090442;-14.55;29.7;-39.0;24.086603;-6.8750725;1.77273;1020.7133;-;-;51.52502863;-0.1334877;0.0
1531048624818;-;-;0.40715334;1.0777588;9.901011;-0.057209298;0.008096596;-0.001644107;-14.55;29.7;-39.0;24.099543;-6.8245573;1.7581325;1020.7133;-;-;51.52502863;-0.1334877;0.0
1531048624828;-;-;0.4406836;1.0394385;9.939331;-0.04762192;0.0017050098;-0.011231488;-14.55;29.7;-39.0;24.099543;-6.8245573;1.7581325;1020.7133;-;-;51.52502863;-0.1334877;0.0
1531048624838;-;-;0.43589357;1.0681788;9.948912;-0.031110322;0.015553447;-0.008035693;-14.250001;31.35;-40.2;24.111526;-6.756604;1.7485777;1020.7133;-;-;51.52502863;-0.1334877;0.0
1531048624848;-;-;0.4406836;1.1543995;10.020762;-0.018859781;-0.0014907835;-0.014959913;-14.250001;31.35;-40.2;24.111526;-6.756604;1.7485777;1020.7133;-;-;51.52502863;-0.1334877;0.0
1531048624858;-;-;0.39278322;1.1160791;9.833951;-0.01140293;0.0038355389;0.003149583;-14.400001;32.25;-39.300003;24.121014;-6.707106;1.7404794;1020.7133;-;-;51.52502863;-0.1334877;0.0
1531048624869;-;-;0.37362307;1.1208692;9.83874;-0.021522943;0.010227125;0.009008538;-14.400001;32.25;-39.300003;24.121014;-6.707106;1.7404794;1020.7133;-;-;51.52502863;-0.1334877;0.0
1531048624879;-;-;0.45984375;1.0825489;9.857901;-0.024186103;-4.2551907E-4;0.014867492;-15.3;31.650002;-40.2;24.12353;-6.684662;1.7396454;1020.7133;-;-;51.52502863;-0.1334877;0.0
1531048624889;-;-;0.5508545;1.0538087;9.958491;-0.025251368;-0.0036213123;0.0068780086;-15.3;31.650002;-40.2;24.12353;-6.684662;1.7396454;1020.7118;-;-;51.52502863;-0.1334877;0.0
1531048624899;-;-;0.5412744;1.0777588;9.963282;-0.0076745036;-4.2551907E-4;0.0010190541;-15.750001;31.2;-39.600002;24.111368;-6.6628695;1.7347374;1020.7118;-;-;51.52502863;-0.1334877;0.0
1531048624909;-;-;0.48379397;1.1496094;10.011182;0.0029781405;0.0064986995;0.0068780086;-15.750001;31.2;-39.600002;24.111368;-6.6628695;1.7347374;1020.7118;-;-;51.52502863;-0.1334877;0.0
1531048624920;-;-;0.48379397;1.0777588;10.054293;0.03174028;-0.0025560479;0.013269594;-15.6;31.650002;-39.9;24.098217;-6.645985;1.7381157;1020.7118;-;-;51.52502863;-0.1334877;0.0
1531048624930;-;-;0.49337405;1.0729688;9.963282;0.027479222;-0.018535014;0.021259079;-15.6;31.650002;-39.9;24.098217;-6.645985;1.7381157;1020.7118;-;-;51.52502863;-0.1334877;0.0
1531048624940;-;-;0.5029541;1.1543995;9.867481;0.032272913;-0.0025560479;-4.6210364E-5;-15.750001;31.2;-39.300003;24.08907;-6.6616735;1.7328383;1020.7118;-;-;51.52502863;-0.1334877;0.0
1531048624950;-;-;0.5029541;1.1496094;9.901011;0.032272913;-0.0020234156;0.005812744;-15.750001;31.2;-39.300003;24.08907;-6.6616735;1.7328383;1020.7118;-;-;51.52502863;-0.1334877;0.0
1531048624960;-;-;0.46463382;1.101709;9.81;0.022685533;-0.008415002;-0.0069704293;-13.650001;31.2;-39.300003;24.07808;-6.693899;1.7486383;1020.7118;-;-;51.52502863;-0.1334877;0.0
1531048624971;-;-;0.3879932;1.1879297;9.685459;0.012032888;-0.00308868;-0.0069704293;-13.650001;31.2;-39.300003;24.07808;-6.693899;1.7486383;1020.7118;-;-;51.52502863;-0.1334877;0.0
1531048624982;-;-;0.43110353;1.092129;9.6615095;-0.0044787107;0.01129239;-0.003774636;-14.85;31.650002;-39.9;24.07876;-6.7228503;1.756154;1020.7126;-;-;51.52502863;-0.1334877;0.0
1531048624992;-;-;0.4023633;1.1064991;9.704619;-0.026316633;0.015553447;-0.004307268;-16.5;31.800001;-40.050003;24.07876;-6.7228503;1.756154;1020.7126;-;-;51.52502863;-0.1334877;0.0
1531048625002;-;-;0.5364844;1.1496094;9.83874;-0.029512426;0.013955551;-0.008035693;-16.5;31.800001;-40.050003;24.086613;-6.729372;1.7510202;1020.7126;-;-;51.52502863;-0.1334877;0.0
1531048625012;-;-;0.56522465;1.1400293;9.867481;-0.034306113;0.0049008033;-0.018155707;-14.85;31.35;-38.7;24.092808;-6.7016196;1.737025;1020.7126;-;-;51.52502863;-0.1334877;0.0
1531048625023;-;-;0.60833496;1.1735597;9.867481;-0.039099805;-0.0025560479;-0.028275719;-14.85;31.35;-38.7;24.092808;-6.7016196;1.737025;1020.7126;-;-;51.52502863;-0.1334877;0.0
1531048625033;-;-;0.5556446;1.1687696;9.924961;-0.043360863;-9.581513E-4;-0.044787318;-15.3;30.6;-38.7;24.114975;-6.663648;1.7253875;1020.7126;-;-;51.52502863;-0.1334877;0.0
1531048625043;-;-;0.3879932;1.1160791;9.958491;-0.028979793;0.005966068;-0.050113637;-15.3;30.6;-38.7;24.114975;-6.663648;1.7253875;1020.7126;-;-;51.52502863;-0.1334877;0.0
1531048625053;-;-;0.4023633;1.0585986;10.0063925;-0.027381897;0.010227125;-0.044254683;-15.150001;30.45;-39.300003;24.167706;-6.62193;1.719384;1020.7126;-;-;51.52502863;-0.1334877;0.0
1531048625063;-;-;0.20118165;1.0825489;9.939331;-0.021522943;0.016086081;-0.03839573;-15.150001;30.45;-39.300003;24.167706;-6.62193;1.719384;1020.7126;-;-;51.52502863;-0.1334877;0.0
1531048625074;-;-;0.22513184;1.0394385;9.74294;-0.029512426;0.007563965;-0.016025178;-14.700001;30.150002;-39.300003;24.219744;-6.5915337;1.7028304;1020.7126;-;-;51.52502863;-0.1334877;0.0
1531048625084;-;-;0.22513184;1.2022998;9.79084;-0.040165067;-0.046764523;-0.0048399004;-14.700001;30.150002;-39.300003;24.219744;-6.5915337;1.7028304;1020.7185;-;-;51.52502863;-0.1334877;0.0
1531048625094;-;-;0.31135255;1.1496094;9.72378;-0.046556655;-0.06434139;-0.004307268;-15.150001;32.850002;-39.300003;24.239763;-6.557899;1.6974367;1020.7185;-;-;51.52502863;-0.1334877;0.0
1531048625104;-;-;0.39757326;1.1448194;9.79084;-0.04442613;-0.09949511;-0.016557809;-15.150001;32.850002;-39.300003;24.239763;-6.557899;1.6974367;1020.7185;-;-;51.52502863;-0.1334877;0.0
1531048625115;-;-;0.44547364;1.096919;9.877061;-0.03856717;-0.11227829;-0.019753603;-14.55;32.100002;-40.65;24.25396;-6.5061383;1.7712891;1020.7185;-;-;51.52502863;-0.1334877;0.0
1531048625125;-;-;0.48379397;1.0825489;9.972861;-0.03803454;-0.14530149;-0.01176412;-14.55;32.100002;-40.65;24.25396;-6.5061383;1.7712891;1020.7185;-;-;51.52502863;-0.1334877;0.0
1531048625135;-;-;0.5891748;1.0873389;10.140513;-0.02312084;-0.13411622;-0.01176412;-14.85;31.050001;-39.0;24.290071;-6.457989;1.898353;1020.7185;-;-;51.52502863;-0.1334877;0.0
1531048625145;-;-;0.613125;1.1400293;10.097403;-0.0076745036;-0.09629932;-5.788426E-4;-14.85;31.050001;-39.0;24.290071;-6.457989;1.898353;1020.7185;-;-;51.52502863;-0.1334877;0.0
1531048625156;-;-;0.5843848;1.1064991;10.073453;0.031207649;-0.028655026;-0.012829384;-15.150001;30.900002;-39.300003;24.317446;-6.4240136;2.0508945;1020.7185;-;-;51.52502863;-0.1334877;0.0
1531048625166;-;-;0.49337405;1.1735597;9.81958;0.06050242;-0.018002382;0.01220433;-15.150001;30.900002;-39.300003;24.317446;-6.4240136;2.0508945;1020.7185;-;-;51.52502863;-0.1334877;0.0
1531048625176;-;-;0.60354495;1.3076807;9.6615095;0.050915044;-0.024393968;0.0265854;-14.85;32.100002;-40.65;24.329294;-6.444931;2.116557;1020.7185;-;-;51.52502863;-0.1334877;0.0
1531048625187;-;-;0.79993653;1.6429834;9.287886;-0.06519879;-0.20229314;0.01220433;-14.85;32.100002;-40.65;24.329294;-6.444931;2.116557;1020.7168;-;-;51.52502863;-0.1334877;0.0
1531048625197;-;-;1.0777588;1.5567628;9.489068;-0.13124518;-0.19856471;-0.008568326;-14.400001;31.500002;-39.300003;24.30988;-6.491687;2.164837;1020.7168;-;-;51.52502863;-0.1334877;0.0
1531048625206;-;-;1.4082716;1.4992822;9.929751;-0.15414837;-0.06753718;-0.037863098;-14.400001;31.500002;-39.300003;24.30988;-6.491687;2.164837;1020.7168;-;-;51.52502863;-0.1334877;0.0
1531048625216;-;-;1.6525636;1.3939015;10.159674;-0.13284308;-0.010545532;-0.057037856;-15.6;31.650002;-39.9;24.32943;-6.389082;2.3818324;1020.7168;-;-;51.52502863;-0.1334877;0.0
1531048625226;-;-;1.6669337;1.5711329;10.130933;-0.08597212;0.08212784;-0.08262273;-15.6;31.650002;-39.9;24.32943;-6.389082;2.3818324;1020.7168;-;-;51.52502863;-0.1334877;0.0
1531048625236;-;-;1.5232325;1.7771046;10.217154;-0.0657321;0.13965212;-0.122037515;-14.85;31.650002;-38.25;24.384642;-6.2413807;2.4196177;1020.7168;-;-;51.52502863;-0.1334877;0.0
1531048625247;-;-;1.5998731;1.8250049;9.972861;-0.07052579;0.21794906;-0.2077913;-14.85;31.650002;-38.25;24.384642;-6.2413807;2.4196177;1020.7168;-;-;51.52502863;-0.1334877;0.0
1531048625257;-;-;1.3986914;1.8681153;10.121353;-0.12751743;0.15882687;-0.16890915;-15.3;31.050001;-39.9;24.48643;-6.1645;2.3011522;1020.7168;-;-;51.52502863;-0.1334877;0.0
1531048625268;-;-;1.0298585;1.9255958;10.686578;-0.11473426;0.12314052;-0.06291533;-15.3;31.050001;-39.9;24.48643;-6.1645;2.3011522;1020.7168;-;-;51.52502863;-0.1334877;0.0
1531048625278;-;-;1.4609619;0.2921924;9.920172;-0.08863529;0.12527105;-0.015511066;-14.55;31.050001;-39.0;24.67904;-6.1097183;2.134091;1020.7152;-;-;51.52502863;-0.1334877;0.0
1531048625289;-;-;2.787803;1.3843213;9.72378;-0.13284376;0.18119743;-0.19500813;-14.55;31.050001;-39.0;24.67904;-6.1097183;2.134091;1020.7152;-;-;51.52502863;-0.1334877;0.0
1531048625299;-;-;2.2273684;2.1219873;10.5764065;-0.053481564;0.34151974;-0.48582533;-14.700001;30.900002;-38.4;24.724073;-5.9818225;2.0150433;1020.7152;-;-;51.52502863;-0.1334877;0.0
1531048625309;-;-;2.2417383;2.3566992;10.609937;0.029076433;0.3345955;-0.83203626;-14.700001;30.900002;-38.4;24.724073;-5.9818225;2.0150433;1020.7152;-;-;51.52502863;-0.1334877;0.0
1531048625319;-;-;1.1064991;1.2597803;10.274634;0.009369041;0.11674894;-0.8794405;-14.55;31.050001;-39.45;25.078962;-5.889717;1.7137604;1020.7152;-;-;51.52502863;-0.1334877;0.0
1531048625329;-;-;0.6706055;1.1496094;10.087823;0.015760629;0.033125676;-0.76865304;-14.55;31.050001;-39.45;25.078962;-5.889717;1.7137604;1020.7152;-;-;51.52502863;-0.1334877;0.0
1531048625340;-;-;0.5508545;1.0490186;9.929751;-0.0060772942;0.034723576;-0.567318;-15.750001;32.550003;-38.4;26.021296;-5.935193;1.3366328;1020.7152;-;-;51.52502863;-0.1334877;0.0
1531048625352;-;-;0.5412744;0.82388675;10.212363;-0.021523628;0.021407766;-0.47250953;-13.500001;30.6;-39.0;26.80703;-5.962658;1.2157227;1020.7152;-;-;51.52502863;-0.1334877;0.0
1531048625361;-;-;0.53169435;0.79035646;10.384805;-0.023121525;0.016081445;-0.4559979;-13.500001;30.6;-39.0;26.80703;-5.962658;1.2157227;1020.7152;-;-;51.52502863;-0.1334877;0.0
1531048625372;-;-;0.48379397;0.852627;10.312955;-0.015132043;0.040049896;-0.46984637;-12.6;30.150002;-39.600002;26.80703;-5.962658;1.2157227;1020.7152;-;-;51.52502863;-0.1334877;0.0
1531048625382;-;-;0.5221143;0.5987549;10.432706;0.01149957;0.1758711;-0.47144425;-12.6;30.150002;-39.600002;27.346628;-5.95059;1.1391705;1020.71875;-;-;51.52502863;-0.1334877;0.0
1531048625392;-;-;0.5364844;0.64186525;10.485396;0.060501732;0.223808;-0.45972633;-12.6;29.85;-39.300003;27.867813;-5.9493074;0.99047756;1020.71875;-;-;51.52502863;-0.1334877;0.0
1531048625402;-;-;0.5221143;0.68018556;10.394385;0.16329975;0.20889431;-0.39101678;-12.6;29.85;-39.300003;27.867813;-5.9493074;0.99047756;1020.71875;-;-;51.52502863;-0.1334877;0.0
1531048625412;-;-;0.4023633;0.71371585;10.150093;0.22401983;0.15669635;-0.39740837;-14.250001;29.7;-38.25;28.346895;-6.0522966;0.6909454;1020.71875;-;-;51.52502863;-0.1334877;0.0
1531048625422;-;-;0.40715334;0.8047266;9.69504;0.2746199;0.075736254;-0.39847365;-14.250001;29.7;-38.25;28.346895;-6.0522966;0.6909454;1020.71875;-;-;51.52502863;-0.1334877;0.0
1531048625433;-;-;0.41194338;0.8382569;9.402847;0.2879357;0.020875135;-0.4144526;-13.950001;28.95;-39.9;28.779606;-6.317832;0.48251244;1020.71875;-;-;51.52502863;-0.1334877;0.0
1531048625499;-;-;0.16286133;0.57959473;9.307046;0.049316455;0.008091961;-0.43948632;-13.950001;27.900002;-41.100002;30.263123;-7.0669265;0.4626502;1020.7231;-;-;51.52502863;-0.1334877;0.0
1531048625509;-;-;-0.043110352;0.56522465;9.278306;0.026413273;0.03791937;-0.43416;-13.950001;27.900002;-41.100002;30.263123;-7.0669265;0.4626502;1020.7231;-;-;51.52502863;-0.1334877;0.0
1531048625508;-;-;-0.043110352;0.56522465;9.278306;0.026413273;0.03791937;-0.43416;-13.950001;27.900002;-41.100002;30.263123;-7.0669265;0.4626502;1020.7231;-;-;51.52502863;-0.1334877;0.0
1531048625503;-;-;0.047900394;0.6179151;9.3453665;0.03333749;0.021940399;-0.44001895;-13.950001;27.900002;-41.100002;30.263123;-7.0669265;0.4626502;1020.7231;-;-;51.52502863;-0.1334877;0.0
1531048625505;-;-;0.043110352;0.5748047;9.263936;0.029076433;0.032060415;-0.43043157;-13.950001;27.900002;-41.100002;30.263123;-7.0669265;0.4626502;1020.7231;-;-;51.52502863;-0.1334877;0.0
1531048625507;-;-;-0.043110352;0.56522465;9.278306;0.026413273;0.03791937;-0.43416;-13.950001;27.900002;-41.100002;30.263123;-7.0669265;0.4626502;1020.7231;-;-;51.52502863;-0.1334877;0.0
1531048625495;-;-;0.15328126;0.64186525;9.278306;0.05783857;0.002233007;-0.43682316;-13.950001;27.900002;-41.100002;30.263123;-7.0669265;0.4626502;1020.7231;-;-;51.52502863;-0.1334877;0.0
1531048625515;-;-;-0.1580713;0.6610254;9.354947;-0.0018162362;0.04857201;-0.42457262;-12.6;30.150002;-40.5;30.769054;-7.1414685;0.41158152;1020.7231;-;-;51.52502863;-0.1334877;0.0
1531048625525;-;-;-0.3065625;0.5412744;9.335787;-0.01992573;0.049637277;-0.40646312;-12.6;30.150002;-40.5;30.769054;-7.1414685;0.41158152;1020.7231;-;-;51.52502863;-0.1334877;0.0
1531048625535;-;-;-0.44547364;0.5748047;9.307046;-0.036969963;0.037386734;-0.38036415;-12.6;29.1;-40.050003;31.239965;-7.1531963;0.29971027;1020.7231;-;-;51.52502863;-0.1334877;0.0
1531048625545;-;-;-0.5412744;0.5604346;9.369317;-0.051351033;0.023538295;-0.35852623;-12.6;29.1;-40.050003;31.239965;-7.1531963;0.29971027;1020.7231;-;-;51.52502863;-0.1334877;0.0
1531048625556;-;-;-0.46942386;0.53169435;9.469908;-0.06306894;0.0075593297;-0.3366883;-14.250001;28.2;-38.7;31.655165;-7.118049;0.19531988;1020.7231;-;-;51.52502863;-0.1334877;0.0
1531048625566;-;-;-0.41194338;0.46942386;9.685459;-0.06147105;0.0011677424;-0.3297641;-14.250001;28.2;-38.7;31.655165;-7.118049;0.19531988;1020.7231;-;-;51.52502863;-0.1334877;0.0
1531048625577;-;-;-0.40715334;0.5412744;9.69504;-0.06147105;-0.0014954187;-0.32656828;-13.05;27.000002;-40.5;32.048702;-7.046713;0.12180285;1020.72687;-;-;51.52502863;-0.1334877;0.0
1531048625587;-;-;-0.613125;0.5364844;9.987232;-0.05774262;-0.012148064;-0.30952406;-13.05;27.000002;-40.5;32.048702;-7.046713;0.12180285;1020.72687;-;-;51.52502863;-0.1334877;0.0
1531048625597;-;-;-0.5460645;0.5460645;10.106983;-0.042828918;-0.006821741;-0.28449035;-12.6;29.400002;-40.5;32.416077;-6.9656897;0.07218957;1020.72687;-;-;51.52502863;-0.1334877;0.0
1531048625607;-;-;-0.6227051;0.5891748;10.044712;-0.039633125;-0.0062891087;-0.2525324;-12.6;29.400002;-40.5;32.416077;-6.9656897;0.07218957;1020.72687;-;-;51.52502863;-0.1334877;0.0
1531048625618;-;-;-0.44547364;0.6993457;10.111773;-0.06306894;0.018744605;-0.23016186;-12.6;27.45;-38.850002;32.718323;-6.901088;0.030912371;1020.72687;-;-;51.52502863;-0.1334877;0.0
1531048625628;-;-;-0.4742139;0.75203615;10.092612;-0.08171107;0.06295308;-0.21471553;-12.6;27.45;-38.850002;32.718323;-6.901088;0.030912371;1020.72687;-;-;51.52502863;-0.1334877;0.0
1531048625638;-;-;-0.34967285;0.7568262;10.150093;-0.106212154;0.12953211;-0.21844395;-13.950001;27.150002;-41.550003;32.97083;-6.840773;-0.0064496193;1020.72687;-;-;51.52502863;-0.1334877;0.0
1531048625648;-;-;-0.26345217;0.852627;10.174044;-0.13231114;0.18066481;-0.21737869;-13.950001;27.150002;-41.550003;32.97083;-6.840773;-0.0064496193;1020.72687;-;-;51.52502863;-0.1334877;0.0
1531048625659;-;-;-0.37362307;0.8286768;10.126143;-0.16054064;0.26375544;-0.2045955;-12.450001;27.900002;-40.2;33.20209;-6.736492;-0.13726173;1020.72687;-;-;51.52502863;-0.1334877;0.0
1531048625669;-;-;-0.5125342;0.8143067;10.164463;-0.16853012;0.2829302;-0.1960734;-12.450001;27.900002;-40.2;33.20209;-6.736492;-0.13726173;1020.72687;-;-;51.52502863;-0.1334877;0.0
1531048625679;-;-;-0.57001466;0.91010743;10.322535;-0.13710482;0.26641858;-0.15878914;-13.35;28.050001;-39.300003;33.39119;-6.5685086;-0.40585685;1020.73425;-;-;51.52502863;-0.1334877;0.0
1531048625691;-;-;-0.56522465;0.9148975;10.394385;-0.099287935;0.22487327;-0.13695122;-11.400001;27.6;-39.9;33.54654;-6.391258;-0.7479866;1020.73425;-;-;51.52502863;-0.1334877;0.0
1531048625699;-;-;-0.4742139;0.9244776;10.547667;-0.03377417;0.17001216;-0.11777645;-11.400001;27.6;-39.9;33.54654;-6.391258;-0.7479866;1020.73425;-;-;51.52502863;-0.1334877;0.0
1531048625709;-;-;-0.3544629;0.96758795;10.538086;0.017891157;0.13805422;-0.10765644;-10.950001;27.750002;-40.050003;33.635975;-6.297525;-1.0016068;1020.73425;-;-;51.52502863;-0.1334877;0.0
1531048625720;-;-;-0.32572266;1.0825489;10.427916;0.09245967;0.09917207;-0.09753643;-10.950001;27.750002;-40.050003;33.635975;-6.297525;-1.0016068;1020.73425;-;-;51.52502863;-0.1334877;0.0
1531048625730;-;-;-0.23471193;1.0681788;10.145303;0.12494937;0.08744837;-0.1044838;-10.950001;28.050001;-38.4;33.635975;-6.297525;-1.0016068;1020.73425;-;-;51.52502863;-0.1334877;0.0
1531048625740;-;-;-0.21076173;1.1783496;9.896221;0.120155685;0.07839362;-0.10075537;-10.950001;28.050001;-38.4;33.702377;-6.3528876;-1.1538284;1020.73425;-;-;51.52502863;-0.1334877;0.0
1531048625751;-;-;-0.15328126;1.1160791;9.896221;0.10790514;0.08585048;-0.10874486;-11.400001;27.6;-38.7;33.77735;-6.4974685;-1.2629559;1020.73425;-;-;51.52502863;-0.1334877;0.0
1531048625760;-;-;-0.20597169;1.1304493;9.81;0.08713248;0.106623136;-0.1177996;-11.400001;27.6;-38.7;33.77735;-6.4974685;-1.2629559;1020.73425;-;-;51.52502863;-0.1334877;0.0
1531048625770;-;-;-0.21555176;1.1687696;9.872271;0.07168615;0.12579788;-0.117266975;-9.3;28.800001;-40.5;33.77735;-6.4974685;-1.2629559;1020.73364;-;-;51.52502863;-0.1334877;0.0
1531048625781;-;-;-0.119750984;1.2358302;9.833951;0.04718507;0.15562528;-0.11886487;-9.3;28.800001;-40.5;33.856422;-6.6150837;-1.3826668;1020.73364;-;-;51.52502863;-0.1334877;0.0
1531048625791;-;-;-0.081430666;1.2933106;9.7812605;0.024281885;0.17053899;-0.13377857;-10.950001;26.400002;-41.25;33.92882;-6.6832075;-1.5561891;1020.73364;-;-;51.52502863;-0.1334877;0.0
1531048625801;-;-;-0.043110352;1.2549903;9.6615095;-0.0066107847;0.21581273;-0.14709437;-10.950001;26.400002;-41.25;33.92882;-6.6832075;-1.5561891;1020.73364;-;-;51.52502863;-0.1334877;0.0
1531048625811;-;-;-0.06227051;1.2406201;9.69504;-0.028981337;0.25149912;-0.16041018;-10.8;26.85;-41.100002;34.024063;-6.7013226;-1.7881086;1020.73364;-;-;51.52502863;-0.1334877;0.0
1531048625822;-;-;-0.13891114;1.2022998;9.685459;-0.06040664;0.25203174;-0.15934491;-10.8;26.85;-41.100002;34.024063;-6.7013226;-1.7881086;1020.73364;-;-;51.52502863;-0.1334877;0.0
1531048625832;-;-;-0.22992188;1.1783496;9.78605;-0.07159192;0.24084644;-0.17372598;-9.6;27.750002;-40.050003;34.138493;-6.656481;-2.0942802;1020.73364;-;-;51.52502863;-0.1334877;0.0
1531048625842;-;-;-0.32572266;1.1352394;9.800421;-0.06573296;0.21101904;-0.16360597;-9.6;27.750002;-40.050003;34.138493;-6.656481;-2.0942802;1020.73364;-;-;51.52502863;-0.1334877;0.0
1531048625852;-;-;-0.43110353;1.0681788;9.800421;-0.05294979;0.17533268;-0.14656174;-9.75;26.85;-39.45;34.25875;-6.5736504;-2.38029;1020.73364;-;-;51.52502863;-0.1334877;0.0
1531048625863;-;-;-0.4742139;1.1543995;9.74294;-0.05774348;0.12792842;-0.1444312;-9.75;26.85;-39.45;34.25875;-6.5736504;-2.38029;1020.73364;-;-;51.52502863;-0.1334877;0.0
1531048625873;-;-;-0.39757326;1.1591895;9.70941;-0.05774348;0.11514525;-0.14656174;-9.75;25.800001;-42.300003;34.370693;-6.502979;-2.5960777;1020.73157;-;-;51.52502863;-0.1334877;0.0
1531048625883;-;-;-0.49337405;1.0202783;9.718989;-0.059341375;0.09383996;-0.13803962;-9.75;25.800001;-42.300003;34.370693;-6.502979;-2.5960777;1020.73157;-;-;51.52502863;-0.1334877;0.0
1531048625894;-;-;-0.3879932;1.0202783;9.580078;-0.091831945;0.059751492;-0.12472382;-9.3;28.800001;-40.95;34.48537;-6.431193;-2.7466192;1020.73157;-;-;51.52502863;-0.1334877;0.0
1531048625904;-;-;-0.364043;1.0538087;9.632769;-0.1339099;0.075730465;-0.1225933;-9.3;28.800001;-40.95;34.48537;-6.431193;-2.7466192;1020.73157;-;-;51.52502863;-0.1334877;0.0
1531048625914;-;-;-0.31135255;1.0298585;10.011182;-0.16267203;0.11674315;-0.13537647;-9.0;26.550001;-39.45;34.585773;-6.3223596;-2.8495672;1020.73157;-;-;51.52502863;-0.1334877;0.0
1531048625925;-;-;-0.23471193;0.9867481;10.413546;-0.14988886;0.13378736;-0.1460291;-9.0;26.550001;-39.45;34.585773;-6.3223596;-2.8495672;1020.73157;-;-;51.52502863;-0.1334877;0.0
1531048625935;-;-;-0.3161426;0.9196875;10.442286;-0.108876176;0.16787583;-0.1444312;-9.450001;28.2;-38.7;34.688576;-6.1381135;-2.9804838;1020.73157;-;-;51.52502863;-0.1334877;0.0
1531048625945;-;-;-0.43589357;0.9148975;10.260264;-0.06040664;0.19823587;-0.1359091;-9.450001;28.2;-38.7;34.688576;-6.1381135;-2.9804838;1020.73157;-;-;51.52502863;-0.1334877;0.0
1531048625954;-;-;-0.49337405;0.87178713;10.197993;-0.051884525;0.19770324;-0.11993013;-9.6;25.35;-40.95;34.799644;-5.99713;-3.1760533;1020.73157;-;-;51.52502863;-0.1334877;0.0
1531048625964;-;-;-0.5221143;1.0250684;9.901011;-0.044960305;0.2003664;-0.110342756;-9.6;25.35;-40.95;34.799644;-5.99713;-3.1760533;1020.7305;-;-;51.52502863;-0.1334877;0.0
1531048625975;-;-;-0.51732427;1.0011182;9.75731;-0.06679823;0.18651795;-0.09969011;-9.0;27.6;-41.550003;34.885323;-5.9279175;-3.4109256;1020.7305;-;-;51.52502863;-0.1334877;0.0
1531048625985;-;-;-0.46463382;1.0011182;9.82437;-0.080646664;0.17906111;-0.09969011;-9.0;27.6;-41.550003;34.885323;-5.9279175;-3.4109256;1020.7305;-;-;51.52502863;-0.1334877;0.0
1531048625996;-;-;-0.50774413;1.0154883;9.81;-0.07478771;0.18918112;-0.091167994;-8.25;28.800001;-40.95;34.940037;-5.855852;-3.6423168;1020.7305;-;-;51.52502863;-0.1334877;0.0
1531048626006;-;-;-0.488584;0.9915381;9.872271;-0.0662656;0.18065901;-0.09862485;-8.25;28.800001;-40.95;34.940037;-5.855852;-3.6423168;1020.7305;-;-;51.52502863;-0.1334877;0.0
1531048626016;-;-;-0.4981641;1.0873389;9.85311;-0.058808744;0.14976634;-0.09969011;-8.55;27.000002;-42.9;34.983376;-5.7624054;-3.8683176;1020.7305;-;-;51.52502863;-0.1334877;0.0
1531048626027;-;-;-0.41194338;1.0633887;9.829161;-0.05401505;0.12206947;-0.117266975;-8.55;27.000002;-42.9;34.983376;-5.7624054;-3.8683176;1020.7305;-;-;51.52502863;-0.1334877;0.0
1531048626036;-;-;-0.5891748;1.0250684;9.910591;-0.045492936;0.093307324;-0.13164803;-10.05;26.250002;-41.550003;35.036983;-5.686738;-4.0652823;1020.7305;-;-;51.52502863;-0.1334877;0.0
1531048626046;-;-;-0.57001466;0.9436377;9.934542;-0.024187647;0.096503116;-0.13537647;-10.05;26.250002;-41.550003;35.036983;-5.686738;-4.0652823;1020.7305;-;-;51.52502863;-0.1334877;0.0
1531048626056;-;-;-0.6466553;0.9532178;9.944121;-0.003414991;0.086383104;-0.13058276;-8.25;28.800001;-40.95;35.132626;-5.626971;-4.1999574;1020.7305;-;-;51.52502863;-0.1334877;0.0
1531048626067;-;-;-0.7232959;1.0059083;9.948912;0.012031344;0.07839362;-0.11833224;-8.25;28.800001;-40.95;35.132626;-5.626971;-4.1999574;1020.73016;-;-;51.52502863;-0.1334877;0.0
1531048626077;-;-;-0.6706055;1.0490186;9.848321;0.026412414;0.03951147;-0.09969011;-10.05;27.900002;-41.850002;35.228405;-5.604521;-4.316632;1020.73016;-;-;51.52502863;-0.1334877;0.0
1531048626087;-;-;-0.74724615;1.0873389;9.7621;0.031206105;0.021401973;-0.10341854;-10.05;27.900002;-41.850002;35.228405;-5.604521;-4.316632;1020.73016;-;-;51.52502863;-0.1334877;0.0
1531048626097;-;-;-0.57001466;1.0298585;9.651929;0.009900815;-0.0030991095;-0.08477641;-8.400001;27.6;-41.850002;35.306915;-5.6185646;-4.396732;1020.73016;-;-;51.52502863;-0.1334877;0.0
1531048626108;-;-;-0.46942386;1.1496094;9.690249;-0.008208681;-0.014284386;-0.10182064;-9.0;27.900002;-41.850002;35.370804;-5.630774;-4.414506;1020.73016;-;-;51.52502863;-0.1334877;0.0
1531048626118;-;-;-0.31135255;1.22146;9.977652;0.0024439634;0.017673548;-0.119397506;-9.0;27.900002;-41.850002;35.370804;-5.630774;-4.414506;1020.73016;-;-;51.52502863;-0.1334877;0.0
1531048626129;-;-;-0.33530274;1.1687696;9.982442;0.01575977;0.021401973;-0.14656174;-9.75;26.250002;-41.550003;35.45508;-5.622564;-4.431749;1020.73016;-;-;51.52502863;-0.1334877;0.0
1531048626138;-;-;-0.38320315;1.1831397;10.020762;0.06316403;0.02779356;-0.14176805;-9.75;26.250002;-41.550003;35.45508;-5.622564;-4.431749;1020.73016;-;-;51.52502863;-0.1334877;0.0
1531048626148;-;-;-0.33530274;1.2310401;9.862691;0.07754511;0.014477753;-0.14975753;-8.700001;27.6;-39.9;35.582092;-5.659183;-4.4729176;1020.73016;-;-;51.52502863;-0.1334877;0.0
1531048626158;-;-;-0.37362307;1.1735597;9.733359;0.08393669;-0.035589676;-0.13218068;-8.700001;27.6;-39.9;35.582092;-5.659183;-4.4729176;1020.73016;-;-;51.52502863;-0.1334877;0.0
1531048626169;-;-;-0.34488282;1.2789404;9.79563;0.074349314;-0.09897291;-0.13750699;-9.0;27.150002;-41.850002;35.706417;-5.741215;-4.4727745;1020.7351;-;-;51.52502863;-0.1334877;0.0
1531048626182;-;-;0.15328126;1.2070899;10.212363;0.11163357;-0.23479414;-0.1540186;-9.0;27.150002;-41.850002;35.706417;-5.741215;-4.4727745;1020.7351;-;-;51.52502863;-0.1334877;0.0
1531048626189;-;-;0.25387207;1.2933106;10.260264;0.12814516;-0.2758068;-0.1673344;-9.0;27.6;-41.850002;35.84444;-5.8265924;-4.3200545;1020.7351;-;-;51.52502863;-0.1334877;0.0
1531048626200;-;-;0.25387207;1.3651612;10.394385;0.16755995;-0.32907003;-0.21740183;-9.0;27.6;-41.850002;35.84444;-5.8265924;-4.3200545;1020.7351;-;-;51.52502863;-0.1334877;0.0
1531048626210;-;-;0.33530274;1.456172;10.3512745;0.19099577;-0.34345108;-0.23231553;-10.05;28.2;-42.75;36.049995;-5.96847;-4.0043864;1020.7351;-;-;51.52502863;-0.1334877;0.0
1531048626220;-;-;0.28740236;1.3843213;10.265054;0.20697473;-0.3487774;-0.27386084;-10.05;28.2;-42.75;36.049995;-5.96847;-4.0043864;1020.7351;-;-;51.52502863;-0.1334877;0.0
1531048626231;-;-;0.364043;1.4034815;10.269844;0.22295342;-0.3402572;-0.29038003;-9.3;27.45;-42.15;36.336746;-6.168326;-3.6353235;1020.7351;-;-;51.52502863;-0.1334877;0.0
1531048626240;-;-;0.21555176;1.3603711;10.035132;0.23680186;-0.29711398;-0.33032745;-9.3;27.45;-42.15;36.336746;-6.168326;-3.6353235;1020.7351;-;-;51.52502863;-0.1334877;0.0
1531048626250;-;-;0.12933107;1.4322218;9.7812605;0.23307343;-0.26835185;-0.33991483;-9.6;25.95;-40.95;36.680634;-6.4067745;-3.2987182;1020.7351;-;-;51.52502863;-0.1334877;0.0
1531048626261;-;-;0.17244141;1.4322218;9.513018;0.18993022;-0.21881706;-0.3761338;-9.6;25.95;-40.95;36.680634;-6.4067745;-3.2987182;1020.74036;-;-;51.52502863;-0.1334877;0.0
1531048626271;-;-;0.05269043;1.5423926;9.278306;0.15743965;-0.19431597;-0.38785172;-9.6;27.000002;-40.050003;37.07249;-6.6388383;-3.0467656;1020.74036;-;-;51.52502863;-0.1334877;0.0
1531048626281;-;-;-0.14370118;1.4465919;9.239985;0.07221851;-0.15117277;-0.4123528;-9.6;27.000002;-40.050003;37.07249;-6.6388383;-3.0467656;1020.74036;-;-;51.52502863;-0.1334877;0.0
1531048626291;-;-;-0.25866213;1.4418018;9.259146;0.053043745;-0.13572644;-0.4336581;-10.200001;26.7;-42.15;37.500896;-6.766311;-2.8964922;1020.74036;-;-;51.52502863;-0.1334877;0.0
1531048626301;-;-;-0.22992188;1.3891114;9.287886;0.031205824;-0.17620648;-0.43578863;-10.200001;26.7;-42.15;37.500896;-6.766311;-2.8964922;1020.74036;-;-;51.52502863;-0.1334877;0.0
1531048626312;-;-;-0.26345217;1.3843213;9.474698;0.017890017;-0.1996423;-0.43259284;-8.400001;25.2;-39.9;37.965836;-6.798922;-2.782673;1020.74036;-;-;51.52502863;-0.1334877;0.0
1531048626322;-;-;-0.17244141;1.3795313;9.651929;0.040793203;-0.24065498;-0.44590864;-8.400001;25.2;-39.9;37.965836;-6.798922;-2.782673;1020.74036;-;-;51.52502863;-0.1334877;0.0
1531048626332;-;-;-0.16286133;1.3507911;9.685459;0.046119526;-0.2774066;-0.4736055;-8.85;25.35;-41.7;38.441063;-6.80573;-2.6070845;1020.74036;-;-;51.52502863;-0.1334877;0.0
1531048626342;-;-;-0.19160157;1.3651612;9.85311;0.04452163;-0.30776665;-0.48266026;-8.85;25.35;-41.7;38.441063;-6.80573;-2.6070845;1020.74036;-;-;51.52502863;-0.1334877;0.0
1531048626352;-;-;-0.26345217;1.2645704;9.81;0.04185847;-0.32427824;-0.49597606;-7.9500003;25.800001;-38.7;38.956383;-6.8364873;-2.3593042;1020.74036;-;-;51.52502863;-0.1334877;0.0
1531048626363;-;-;-0.2682422;1.2406201;9.891431;0.04185847;-0.3402572;-0.48638868;-7.9500003;25.800001;-38.7;38.956383;-6.8364873;-2.3593042;1020.73663;-;-;51.52502863;-0.1334877;0.0
1531048626373;-;-;-0.20118165;1.2502003;9.929751;0.022151075;-0.35463828;-0.49278027;-8.55;25.050001;-39.300003;39.50767;-6.8639274;-2.0590324;1020.73663;-;-;51.52502863;-0.1334877;0.0
1531048626383;-;-;-0.019160157;1.2166699;10.030342;0.010433165;-0.3716825;-0.50076973;-8.55;25.050001;-39.300003;39.50767;-6.8639274;-2.0590324;1020.73663;-;-;51.52502863;-0.1334877;0.0
1531048626393;-;-;0.014370117;1.1927198;10.193204;-0.016198445;-0.39405307;-0.5199445;-9.3;25.35;-39.600002;40.06207;-6.8742404;-1.7166543;1020.73663;-;-;51.52502863;-0.1334877;0.0
1531048626403;-;-;-0.019160157;1.1735597;10.403965;-0.038568996;-0.41642362;-0.5519025;-9.3;25.35;-39.600002;40.06207;-6.8742404;-1.7166543;1020.73663;-;-;51.52502863;-0.1334877;0.0
1531048626414;-;-;-0.12454102;1.0059083;10.744058;-0.040699527;-0.42654362;-0.56468564;-9.3;26.400002;-40.050003;40.657497;-6.835779;-1.3447278;1020.73663;-;-;51.52502863;-0.1334877;0.0
1531048626424;-;-;-0.20597169;1.0250684;11.02667;-0.010872124;-0.41162992;-0.5726751;-9.3;26.400002;-40.050003;40.657497;-6.835779;-1.3447278;1020.73663;-;-;51.52502863;-0.1334877;0.0
1531048626434;-;-;-0.43589357;1.092129;10.97398;0.01362896;-0.37754145;-0.5678814;-9.450001;26.250002;-40.65;41.295826;-6.7767353;-0.94022894;1020.73663;-;-;51.52502863;-0.1334877;0.0
1531048626446;-;-;-0.52690434;0.9627979;10.868599;0.062098496;-0.3056361;-0.5476414;-9.450001;26.250002;-40.65;41.295826;-6.7767353;-0.94022894;1020.73663;-;-;51.52502863;-0.1334877;0.0
1531048626455;-;-;-0.6466553;1.0250684;10.590776;0.09352379;-0.23799182;-0.5231403;-10.950001;25.050001;-40.050003;41.929977;-6.7785506;-0.57778573;1020.73663;-;-;51.52502863;-0.1334877;0.0
1531048626465;-;-;-0.7711963;0.98195803;10.360855;0.11323119;-0.19005492;-0.49064973;-10.950001;25.050001;-40.050003;41.929977;-6.7785506;-0.57778573;1020.7358;-;-;51.52502863;-0.1334877;0.0
1531048626477;-;-;-0.8382569;1.0106983;10.073453;0.10897013;-0.15862961;-0.46774656;-8.85;25.650002;-39.600002;42.511806;-6.8713183;-0.3581546;1020.7358;-;-;51.52502863;-0.1334877;0.0
1531048626486;-;-;-0.852627;1.0106983;9.73815;0.09725222;-0.16076015;-0.4416476;-8.85;25.650002;-39.600002;42.511806;-6.8713183;-0.3581546;1020.7358;-;-;51.52502863;-0.1334877;0.0
1531048626496;-;-;-0.89573735;1.1304493;9.690249;0.09245853;-0.20337072;-0.42140755;-9.0;24.45;-40.2;43.01443;-6.993499;-0.23630129;1020.7358;-;-;51.52502863;-0.1334877;0.0
1531048626506;-;-;-0.9484278;1.22146;9.685459;0.088730104;-0.25290552;-0.41022226;-9.0;24.45;-40.2;43.01443;-6.993499;-0.23630129;1020.7358;-;-;51.52502863;-0.1334877;0.0
1531048626517;-;-;-0.78556645;1.2597803;9.896221;0.09405643;-0.31735402;-0.39637384;-9.3;25.35;-39.600002;43.459106;-7.090176;-0.12950817;1020.7358;-;-;51.52502863;-0.1334877;0.0
1531048626527;-;-;-0.7568262;1.2166699;9.953702;0.10151328;-0.3700846;-0.39637384;-8.25;25.650002;-40.050003;43.459106;-7.090176;-0.12950817;1020.7358;-;-;51.52502863;-0.1334877;0.0
1531048626538;-;-;-0.68018556;1.2166699;10.097403;0.11855751;-0.40310782;-0.39264542;-8.25;25.650002;-40.050003;43.889137;-7.1966352;0.10292609;1020.7358;-;-;51.52502863;-0.1334877;0.0
1531048626547;-;-;-0.5460645;1.22625;10.317744;0.13080804;-0.40044466;-0.3958412;-8.25;25.650002;-40.050003;43.889137;-7.1966352;0.10292609;1020.7358;-;-;51.52502863;-0.1334877;0.0
1531048626557;-;-;-0.42152345;1.1735597;10.418335;0.15051544;-0.37434566;-0.3910475;-9.0;23.85;-41.850002;44.321262;-7.3295703;0.4874583;1020.738;-;-;51.52502863;-0.1334877;0.0
1531048626568;-;-;-0.5412744;1.1687696;10.4566555;0.1648965;-0.3482467;-0.3910475;-9.0;23.85;-41.850002;44.321262;-7.3295703;0.4874583;1020.738;-;-;51.52502863;-0.1334877;0.0
1531048626578;-;-;-0.46942386;1.1735597;10.207574;0.19152811;-0.29018977;-0.38465592;-9.450001;24.150002;-40.65;44.754627;-7.5020523;0.8590258;1020.738;-;-;51.52502863;-0.1334877;0.0
1531048626588;-;-;-0.488584;1.2549903;10.011182;0.18779969;-0.25450343;-0.37666646;-10.200001;25.050001;-39.600002;45.05142;-7.662669;1.0864819;1020.738;-;-;51.52502863;-0.1334877;0.0
1531048626598;-;-;-0.40715334;1.3172607;9.75731;0.17022283;-0.22414339;-0.36867696;-10.200001;25.050001;-39.600002;45.171555;-7.7191944;1.1500808;1020.738;-;-;51.52502863;-0.1334877;0.0
1531048626609;-;-;-0.4023633;1.4753321;9.580078;0.15903755;-0.20496862;-0.3825254;-9.0;23.85;-39.45;45.446823;-7.882827;1.3092209;1020.738;-;-;51.52502863;-0.1334877;0.0
1531048626619;-;-;-0.14849122;1.5663428;9.527389;0.11589435;-0.19697914;-0.42833176;-9.0;23.85;-39.45;45.56229;-7.9321365;1.3526589;1020.738;-;-;51.52502863;-0.1334877;0.0
1531048626629;-;-;-0.15328126;1.585503;9.465117;0.10098065;-0.21562126;-0.43152755;-8.55;24.6;-38.4;45.56229;-7.9321365;1.3526589;1020.738;-;-;51.52502863;-0.1334877;0.0
1531048626640;-;-;0.06227051;1.7004639;9.455538;0.057837434;-0.21189284;-0.5247382;-8.55;24.6;-38.4;45.978367;-8.103537;1.5081738;1020.738;-;-;51.52502863;-0.1334877;0.0
1531048626649;-;-;-0.023950197;1.6046631;9.417217;0.035999514;-0.2161539;-0.5529677;-8.400001;25.500002;-39.45;46.31866;-8.189555;1.6378918;1020.738;-;-;51.52502863;-0.1334877;0.0
1531048626659;-;-;-0.038320314;1.5663428;9.498648;0.020553177;-0.21508864;-0.6136878;-8.400001;25.500002;-39.45;46.47641;-8.210445;1.6767076;1020.738;-;-;51.52502863;-0.1334877;0.0
1531048626669;-;-;-0.23471193;1.465752;9.551338;0.006172108;-0.20230547;-0.6483089;-8.55;24.0;-40.95;46.908573;-8.25855;1.7879637;1020.73706;-;-;51.52502863;-0.1334877;0.0
1531048626679;-;-;-0.5604346;1.4178516;9.589659;0.004041579;-0.18259807;-0.6653531;-8.55;24.0;-40.95;47.09456;-8.269065;1.8218507;1020.73706;-;-;51.52502863;-0.1334877;0.0
1531048626689;-;-;-0.488584;1.3843213;9.613608;0.0051068435;-0.17194542;-0.6531026;-8.55;24.0;-40.95;47.09456;-8.269065;1.8218507;1020.73706;-;-;51.52502863;-0.1334877;0.0
1531048626700;-;-;-0.6562354;1.3651612;9.627979;0.025346868;-0.14584644;-0.6339278;-8.25;24.6;-37.65;47.78518;-8.301453;1.9209492;1020.73706;-;-;51.52502863;-0.1334877;0.0
1531048626710;-;-;-0.6610254;1.3172607;9.541759;0.029607926;-0.13146538;-0.6301994;-8.700001;22.800001;-39.0;48.454613;-8.334301;1.9422109;1020.73706;-;-;51.52502863;-0.1334877;0.0
1531048626721;-;-;-0.62749517;1.3555812;9.340576;0.02801003;-0.114421144;-0.6200794;-8.700001;22.800001;-39.0;48.454613;-8.334301;1.9422109;1020.73706;-;-;51.52502863;-0.1334877;0.0
1531048626731;-;-;-0.57001466;1.465752;9.302257;0.025346354;-0.1075004;-0.6200933;-8.700001;23.85;-39.9;48.91522;-8.372291;1.9439571;1020.73706;-;-;51.52502863;-0.1334877;0.0
1531048626740;-;-;-0.5939649;1.3747413;9.268726;0.021617929;-0.12294673;-0.62595224;-8.700001;23.85;-39.9;49.096924;-8.387096;1.9492085;1020.73706;-;-;51.52502863;-0.1334877;0.0
1531048626750;-;-;-0.56522465;1.3747413;9.249566;0.014161076;-0.14744781;-0.6387354;-8.700001;22.800001;-38.7;49.096924;-8.387096;1.9492085;1020.73706;-;-;51.52502863;-0.1334877;0.0
1531048626760;-;-;-0.5364844;1.3651612;9.388477;0.01735687;-0.20230894;-0.6424638;-8.700001;22.800001;-38.7;49.738663;-8.437755;1.9703182;1020.73706;-;-;51.52502863;-0.1334877;0.0
1531048626771;-;-;-0.6466553;1.2406201;9.422008;0.030140044;-0.2395932;-0.6382028;-7.3500004;22.050001;-38.25;50.22238;-8.470801;2.0286784;1020.73755;-;-;51.52502863;-0.1334877;0.0
1531048626781;-;-;-0.60833496;1.2310401;9.474698;0.049847435;-0.2561048;-0.6334091;-7.3500004;22.050001;-38.25;50.41574;-8.482688;2.053223;1020.73755;-;-;51.52502863;-0.1334877;0.0
1531048626791;-;-;-0.5508545;1.2406201;9.522598;0.045586377;-0.26675746;-0.64139855;-7.05;23.1;-39.9;50.41574;-8.482688;2.053223;1020.73755;-;-;51.52502863;-0.1334877;0.0
1531048626802;-;-;-0.4023633;1.2022998;9.321417;-2.1999347E-4;-0.2395932;-0.6515186;-7.05;23.1;-39.9;51.096336;-8.550185;2.1857054;1020.73755;-;-;51.52502863;-0.1334877;0.0
1531048626812;-;-;-0.45984375;1.0729688;9.364527;-0.050820056;-0.20870052;-0.6605733;-8.400001;21.75;-37.5;51.579212;-8.600508;2.3145185;1020.73755;-;-;51.52502863;-0.1334877;0.0
1531048626823;-;-;-0.46942386;1.096919;9.484278;-0.12538856;-0.17940575;-0.6488554;-8.400001;21.75;-37.5;51.774937;-8.610693;2.3543525;1020.73755;-;-;51.52502863;-0.1334877;0.0
1531048626833;-;-;-0.5939649;1.0681788;9.920172;-0.129117;-0.15596993;-0.63980067;-7.65;21.45;-39.0;52.45888;-8.564676;2.4629416;1020.73755;-;-;51.52502863;-0.1334877;0.0
1531048626843;-;-;-0.60833496;1.0777588;10.011182;-0.115801185;-0.1421215;-0.6137017;-7.65;21.45;-39.0;52.45888;-8.564676;2.4629416;1020.73755;-;-;51.52502863;-0.1334877;0.0
1531048626855;-;-;-0.613125;1.0825489;9.977652;-0.09822432;-0.14318675;-0.6019838;-7.2000003;21.900002;-38.4;52.925976;-8.444709;2.4447205;1020.73755;-;-;51.52502863;-0.1334877;0.0
1531048626864;-;-;-0.5987549;1.1927198;9.848321;-0.077984296;-0.1719489;-0.5497858;-7.2000003;21.900002;-38.4;53.108795;-8.412013;2.4469151;1020.7367;-;-;51.52502863;-0.1334877;0.0
1531048626873;-;-;-0.56522465;1.2358302;9.733359;-0.08544115;-0.1868626;-0.5455248;-4.9500003;21.75;-38.25;53.697952;-8.314764;2.4714983;1020.7367;-;-;51.52502863;-0.1334877;0.0
1531048626884;-;-;-0.52690434;1.1400293;9.699829;-0.104615904;-0.21722263;-0.52581733;-4.9500003;21.75;-38.25;53.697952;-8.314764;2.4714983;1020.7367;-;-;51.52502863;-0.1334877;0.0
1531048626894;-;-;-0.43589357;1.2070899;9.685459;-0.11260539;-0.2395932;-0.5300784;-5.4;21.900002;-39.600002;54.23273;-8.217816;2.500998;1020.7367;-;-;51.52502863;-0.1334877;0.0
1531048626905;-;-;-0.43110353;1.1591895;9.83874;-0.17758653;-0.25663742;-0.5183605;-5.4;21.900002;-39.600002;54.23273;-8.217816;2.500998;1020.7367;-;-;51.52502863;-0.1334877;0.0
1531048626915;-;-;-0.39278322;1.22146;9.766891;-0.17758653;-0.25663742;-0.5183605;-7.2000003;22.2;-37.65;54.597332;-8.118473;2.5838168;1020.7367;-;-;51.52502863;-0.1334877;0.0
1531048626926;-;-;-0.34009278;1.1496094;10.140513;-0.2793193;-0.2513111;-0.510371;-6.6000004;22.050001;-38.7;55.122375;-7.9161386;2.7627978;1020.7367;-;-;51.52502863;-0.1334877;0.0
1531048626936;-;-;-0.25387207;1.21188;10.389595;-0.3123425;-0.23107107;-0.47734782;-6.6000004;22.050001;-38.7;55.27755;-7.84903;2.8112383;1020.7367;-;-;51.52502863;-0.1334877;0.0
1531048626947;-;-;-0.244292;1.0873389;10.475816;-0.31340775;-0.21882053;-0.47255415;-6.6000004;22.050001;-38.7;55.27755;-7.84903;2.8112383;1020.7367;-;-;51.52502863;-0.1334877;0.0
1531048626957;-;-;-0.038320314;1.0538087;10.854229;-0.3373762;-0.19112365;-0.43100882;-5.25;21.45;-39.9;55.758057;-7.5349073;2.999493;1020.7367;-;-;51.52502863;-0.1334877;0.0
1531048626968;-;-;0.009580079;0.97237796;11.232642;-0.32619092;-0.20071104;-0.4091709;-7.5000005;21.6;-39.300003;56.037796;-7.2737575;3.1145303;1020.74524;-;-;51.52502863;-0.1334877;0.0
1531048626978;-;-;-0.023950197;0.87178713;11.448194;-0.2628077;-0.18153627;-0.35217926;-7.5000005;21.6;-39.300003;56.161976;-7.1887345;3.1544065;1020.74524;-;-;51.52502863;-0.1334877;0.0
1531048626988;-;-;0.033530276;0.8813672;11.429033;-0.22552343;-0.17620996;-0.32394975;-7.3500004;22.800001;-39.0;56.511948;-6.8857217;3.3143454;1020.74524;-;-;51.52502863;-0.1334877;0.0
1531048626998;-;-;0.119750984;0.93405765;11.385923;-0.15255281;-0.16182888;-0.26322967;-7.3500004;22.800001;-39.0;56.511948;-6.8857217;3.3143454;1020.74524;-;-;51.52502863;-0.1334877;0.0
1531048627008;-;-;0.1341211;0.977168;11.299703;-0.113670655;-0.13679516;-0.22488014;-6.4500003;21.150002;-41.25;56.68448;-6.7290034;3.432766;1020.74524;-;-;51.52502863;-0.1334877;0.0
1531048627018;-;-;0.39757326;0.9867481;10.98835;-0.053483218;-0.087793;-0.17534535;-6.4500003;21.150002;-41.25;56.763912;-6.691094;3.4699717;1020.74524;-;-;51.52502863;-0.1334877;0.0
1531048627028;-;-;0.46463382;0.9963282;10.720108;-0.026318973;-0.061694026;-0.14498532;-7.3500004;22.800001;-39.0;56.84364;-6.622363;3.5518048;1020.74524;-;-;51.52502863;-0.1334877;0.0
1531048627038;-;-;0.5460645;1.1448194;10.408755;0.003508432;-0.05210665;-0.09864631;-7.3500004;22.800001;-39.0;56.893867;-6.6119704;3.5696378;1020.74524;-;-;51.52502863;-0.1334877;0.0
1531048627049;-;-;0.6562354;1.2358302;10.2315235;0.0067042257;-0.048910853;-0.06722101;-5.55;22.050001;-39.0;56.898506;-6.609318;3.604525;1020.74524;-;-;51.52502863;-0.1334877;0.0
1531048627059;-;-;0.8143067;1.2693604;10.221944;0.012563179;-0.066487715;-0.038991503;-5.55;22.050001;-39.0;56.927006;-6.612116;3.6159391;1020.7454;-;-;51.52502863;-0.1334877;0.0
1531048627069;-;-;0.8861573;1.1879297;10.260264;0.035998996;-0.07394457;-0.02620833;-7.05;22.800001;-40.2;56.87723;-6.629827;3.6770902;1020.7454;-;-;51.52502863;-0.1334877;0.0
1531048627079;-;-;0.9867481;1.1639795;9.968072;0.09352328;-0.07181404;0.02172857;-7.05;22.800001;-40.2;56.87723;-6.629827;3.6770902;1020.7454;-;-;51.52502863;-0.1334877;0.0
1531048627090;-;-;1.0250684;1.2406201;9.867481;0.08979486;-0.079270884;0.04303386;-6.15;22.2;-39.600002;56.7801;-6.701656;3.7626178;1020.7454;-;-;51.52502863;-0.1334877;0.0
1531048627100;-;-;1.101709;1.3603711;9.651929;0.113230675;-0.0430519;0.08244865;-6.15;22.2;-39.600002;56.7801;-6.701656;3.7626178;1020.7454;-;-;51.52502863;-0.1334877;0.0
1531048627110;-;-;1.2549903;1.456172;9.604029;0.11642647;-0.037192944;0.09896024;-7.2000003;22.650002;-39.300003;56.60189;-6.82064;3.8394835;1020.7454;-;-;51.52502863;-0.1334877;0.0
1531048627121;-;-;1.4849122;1.4465919;9.541759;0.10950225;-0.05210665;0.098427616;-7.2000003;22.650002;-39.300003;56.60189;-6.82064;3.8394835;1020.7454;-;-;51.52502863;-0.1334877;0.0
1531048627131;-;-;1.6094532;1.5088624;9.513018;0.12068752;-0.036660314;0.07765496;-7.8;22.2;-40.5;56.38434;-6.9478583;3.916805;1020.7454;-;-;51.52502863;-0.1334877;0.0
1531048627141;-;-;1.695674;1.5950831;9.407638;0.13773176;-0.055835072;0.050490715;-7.8;22.2;-40.5;56.38434;-6.9478583;3.916805;1020.7454;-;-;51.52502863;-0.1334877;0.0
1531048627152;-;-;1.839375;1.5711329;9.273516;0.12867701;-0.11975094;0.008945398;-6.6000004;21.0;-37.050003;56.199966;-7.126247;4.0721655;1020.7454;-;-;51.52502863;-0.1334877;0.0
1531048627162;-;-;1.6813037;1.6717237;9.268726;0.106306456;-0.22787528;-0.04538309;-6.6000004;21.0;-37.050003;56.199966;-7.126247;4.0721655;1020.7406;-;-;51.52502863;-0.1334877;0.0
1531048627172;-;-;1.5998731;1.6813037;9.1202345;0.06848957;-0.28486693;-0.075743124;-7.3500004;22.35;-38.7;56.115932;-7.3440514;4.3774014;1020.7406;-;-;51.52502863;-0.1334877;0.0
1531048627182;-;-;1.5950831;1.710044;9.249566;0.008302121;-0.34292385;-0.09118946;-7.3500004;22.35;-38.7;56.115932;-7.3440514;4.3774014;1020.7406;-;-;51.52502863;-0.1334877;0.0
1531048627193;-;-;1.6334034;1.6908839;9.043594;-0.06679902;-0.4164271;-0.08106945;-6.0;22.050001;-38.7;56.127018;-7.441127;4.695265;1020.7406;-;-;51.52502863;-0.1334877;0.0
1531048627203;-;-;1.705254;1.4897022;8.823253;-0.121660136;-0.35943547;-0.10024421;-6.0;22.050001;-38.7;56.127018;-7.441127;4.695265;1020.7406;-;-;51.52502863;-0.1334877;0.0
1531048627214;-;-;1.6908839;1.4465919;8.866363;-0.22232763;-0.279008;-0.12474529;-7.5000005;22.2;-38.850002;56.16559;-7.3959146;5.1391726;1020.7406;-;-;51.52502863;-0.1334877;0.0
1531048627223;-;-;1.5423926;1.5998731;8.899893;-0.34643096;-0.23266897;-0.13380004;-7.5000005;22.2;-38.850002;56.16559;-7.3959146;5.1391726;1020.7406;-;-;51.52502863;-0.1334877;0.0
1531048627233;-;-;1.4801221;1.6286134;9.158555;-0.4172715;-0.15757088;-0.10398485;-6.15;21.6;-38.850002;56.231804;-7.1636257;5.455954;1020.7406;-;-;51.52502863;-0.1334877;0.0
1531048627244;-;-;1.4944923;1.4897022;9.441168;-0.4620126;-0.07980658;-0.080549024;-6.15;21.6;-38.850002;56.231804;-7.1636257;5.455954;1020.7406;-;-;51.52502863;-0.1334877;0.0
1531048627255;-;-;1.4178516;1.4274317;9.920172;-0.45402312;-0.0654255;-0.05338478;-6.7500005;21.900002;-37.2;56.262608;-6.705827;5.6301775;1020.7406;-;-;51.52502863;-0.1334877;0.0
1531048627266;-;-;1.346001;1.4178516;10.154883;-0.41886938;-0.083535;-0.045927927;-7.9500003;22.800001;-38.7;56.211063;-6.31664;5.685594;1020.7476;-;-;51.52502863;-0.1334877;0.0
1531048627277;-;-;1.2549903;1.5040723;10.001602;-0.31074503;-0.12934136;-0.013969995;-7.9500003;22.800001;-38.7;56.225513;-6.193483;5.7039523;1020.7476;-;-;51.52502863;-0.1334877;0.0
1531048627287;-;-;1.22625;1.575923;9.972861;-0.27612394;-0.15916878;0.0073352936;-8.400001;22.35;-37.5;56.14711;-5.8797674;5.793645;1020.7476;-;-;51.52502863;-0.1334877;0.0
1531048627297;-;-;1.092129;1.5471827;9.671089;-0.20528387;-0.29658788;0.052076403;-8.400001;22.35;-37.5;56.151974;-5.7969365;5.832555;1020.7476;-;-;51.52502863;-0.1334877;0.0
1531048627307;-;-;1.1975098;1.4849122;9.910591;-0.16586907;-0.35411218;0.07178379;-7.8;22.2;-39.600002;56.025547;-5.540925;6.1124053;1020.7476;-;-;51.52502863;-0.1334877;0.0
1531048627318;-;-;1.4034815;1.465752;10.097403;-0.0870395;-0.4372028;0.080305904;-7.8;22.2;-39.600002;56.025547;-5.540925;6.1124053;1020.7476;-;-;51.52502863;-0.1334877;0.0
1531048627328;-;-;1.3795313;1.4753321;10.169253;-0.0540163;-0.4569102;0.08296907;-7.65;22.800001;-40.2;55.874855;-5.4215035;6.445552;1020.7476;-;-;51.52502863;-0.1334877;0.0
1531048627338;-;-;1.1160791;1.5998731;9.987232;0.004573244;-0.42921332;0.14741758;-7.65;22.800001;-40.2;55.86305;-5.4004893;6.5747476;1020.7476;-;-;51.52502863;-0.1334877;0.0
1531048627349;-;-;1.3028907;1.5184424;9.814791;0.0024427152;-0.4121691;0.1857671;-7.05;21.75;-38.7;55.663864;-5.372532;7.10523;1020.7476;-;-;51.52502863;-0.1334877;0.0
1531048627359;-;-;1.5615528;1.4897022;9.6615095;-0.06786474;-0.29765317;0.20653975;-7.05;21.75;-38.7;55.663864;-5.372532;7.10523;1020.74347;-;-;51.52502863;-0.1334877;0.0
1531048627369;-;-;1.9591261;1.3555812;9.939331;-0.107279524;-0.21509516;0.19269131;-7.8;21.150002;-39.300003;55.357143;-5.3164062;7.5450835;1020.74347;-;-;51.52502863;-0.1334877;0.0
1531048627380;-;-;2.4093897;1.3172607;10.274634;-0.11473637;-0.007368595;0.15913548;-7.8;21.150002;-39.300003;55.357143;-5.3164062;7.5450835;1020.74347;-;-;51.52502863;-0.1334877;0.0
1531048627390;-;-;2.3950195;1.5280225;10.720108;-0.06307105;0.13910528;0.122383855;-9.3;23.550001;-39.300003;55.04374;-5.166194;7.724566;1020.74347;-;-;51.52502863;-0.1334877;0.0
1531048627401;-;-;2.2321582;1.4801221;10.696157;0.0056385086;0.23178329;0.08403433;-9.3;23.550001;-39.300003;55.04374;-5.166194;7.724566;1020.74347;-;-;51.52502863;-0.1334877;0.0
1531048627412;-;-;1.8920655;1.336421;10.547667;0.08127228;0.25575173;0.049945872;-7.5000005;22.2;-37.2;54.78381;-5.0917916;7.5598116;1020.74347;-;-;51.52502863;-0.1334877;0.0
1531048627422;-;-;1.5423926;1.1831397;10.346485;0.1377313;0.19183587;0.02278163;-7.5000005;22.2;-37.2;54.78381;-5.0917916;7.5598116;1020.74347;-;-;51.52502863;-0.1334877;0.0
1531048627433;-;-;1.4705421;1.2310401;10.403965;0.16276501;0.14922528;0.028640583;-7.9500003;22.35;-39.45;54.592464;-5.1825;7.291144;1020.74347;-;-;51.52502863;-0.1334877;0.0
1531048627476;-;-;1.4418018;1.1975098;9.833951;0.31190205;0.42459616;0.06379431;-8.55;23.25;-40.050003;54.21363;-5.6573067;6.8058696;1020.7429;-;-;51.52502863;-0.1334877;0.0
1531048627477;-;-;1.4418018;1.1975098;9.833951;0.31190205;0.42459616;0.06379431;-8.55;23.25;-40.050003;54.21363;-5.6573067;6.8058696;1020.7429;-;-;51.52502863;-0.1334877;0.0
1531048627475;-;-;1.5519727;1.2406201;9.901011;0.30764097;0.4208677;0.061131146;-8.55;23.25;-40.050003;54.21363;-5.6573067;6.8058696;1020.7429;-;-;51.52502863;-0.1334877;0.0
1531048627474;-;-;1.5519727;1.2406201;9.901011;0.30764097;0.4208677;0.061131146;-8.55;23.25;-40.050003;54.21363;-5.6573067;6.8058696;1020.7429;-;-;51.52502863;-0.1334877;0.0
1531048627484;-;-;1.3555812;1.1112891;9.718989;0.30444518;0.42619404;0.06379431;-9.3;23.550001;-37.65;54.006145;-5.9095807;6.468542;1020.7429;-;-;51.52502863;-0.1334877;0.0
1531048627494;-;-;1.3939015;1.3172607;9.570498;0.28633568;0.44430354;0.03503217;-9.3;23.550001;-37.65;53.977707;-5.994042;6.351268;1020.7429;-;-;51.52502863;-0.1334877;0.0
1531048627504;-;-;1.5567628;1.5040723;9.546548;0.28260726;0.4432383;-1.21557154E-4;-9.450001;22.35;-38.25;53.78953;-6.2395597;5.9815593;1020.7429;-;-;51.52502863;-0.1334877;0.0
1531048627515;-;-;1.3076807;1.4274317;9.3309965;0.24319248;0.43098775;-0.05817847;-9.450001;22.35;-38.25;53.77238;-6.319834;5.858795;1020.7429;-;-;51.52502863;-0.1334877;0.0
1531048627525;-;-;1.1112891;1.346001;9.086704;0.21123454;0.5114152;-0.08108166;-8.400001;23.1;-39.0;53.659367;-6.543474;5.4981384;1020.7429;-;-;51.52502863;-0.1334877;0.0
1531048627535;-;-;0.8143067;1.3603711;8.732242;0.07701123;0.65309536;-0.099723786;-8.400001;23.1;-39.0;53.66518;-6.608569;5.361501;1020.7429;-;-;51.52502863;-0.1334877;0.0
1531048627545;-;-;0.6849756;1.3603711;8.703502;-0.017264677;0.73139226;-0.07042901;-7.9500003;23.1;-38.25;53.66518;-6.608569;5.361501;1020.7429;-;-;51.52502863;-0.1334877;0.0
1531048627556;-;-;0.7711963;1.8345851;9.560919;-0.123258494;0.6541606;-0.008643673;-7.9500003;23.1;-38.25;53.580486;-6.7274623;4.6417103;1020.73914;-;-;51.52502863;-0.1334877;0.0
1531048627566;-;-;0.38320315;1.9878663;9.862691;-0.07585422;0.24936014;0.095219605;-8.400001;24.750002;-39.9;53.43309;-6.644792;4.0261745;1020.73914;-;-;51.52502863;-0.1334877;0.0
1531048627576;-;-;0.5604346;0.9148975;10.178833;0.023215372;0.12898526;0.1165249;-8.400001;24.750002;-39.9;53.4011;-6.6179795;3.9137268;1020.73914;-;-;51.52502863;-0.1334877;0.0
1531048627586;-;-;0.3544629;0.5412744;10.341695;0.088729136;0.033111453;0.09202381;-7.9500003;23.1;-39.0;53.4011;-6.6179795;3.9137268;1020.73914;-;-;51.52502863;-0.1334877;0.0
1531048627596;-;-;-0.24908204;0.8669971;10.030342;0.16010185;0.024056707;0.15700495;-7.9500003;23.1;-39.0;53.4011;-6.6179795;3.9137268;1020.73914;-;-;51.52502863;-0.1334877;0.0
1531048627606;-;-;-0.12454102;1.1448194;9.77647;0.21762612;0.055482008;0.23583452;-7.2000003;23.550001;-39.600002;53.145367;-6.595544;3.7411087;1020.73914;-;-;51.52502863;-0.1334877;0.0
1531048627617;-;-;0.732876;1.2310401;9.259146;0.2698241;0.06080833;0.3018809;-7.2000003;23.550001;-39.600002;53.145367;-6.595544;3.7411087;1020.73914;-;-;51.52502863;-0.1334877;0.0
1531048627627;-;-;1.0585986;1.2597803;9.024434;0.27088934;0.108212605;0.26619455;-6.3;21.75;-38.25;52.89431;-6.724232;3.7118068;1020.73914;-;-;51.52502863;-0.1334877;0.0
1531048627637;-;-;1.0777588;1.341211;8.933423;0.21762612;0.2056843;0.15487443;-6.3;21.75;-38.25;52.89431;-6.724232;3.7118068;1020.73914;-;-;51.52502863;-0.1334877;0.0
1531048627648;-;-;0.9915381;1.3747413;8.976534;0.1510471;0.21527168;0.09788277;-6.6000004;22.050001;-37.800003;52.45416;-6.9913774;3.6765528;1020.73914;-;-;51.52502863;-0.1334877;0.0
1531048627658;-;-;0.5843848;1.4992822;9.081915;0.025878534;0.120995775;0.07924064;-6.6000004;22.050001;-37.800003;52.45416;-6.9913774;3.6765528;1020.74255;-;-;51.52502863;-0.1334877;0.0
1531048627668;-;-;0.5508545;1.4465919;9.148975;-0.014601517;0.0932989;0.112263836;-5.55;22.35;-40.2;52.100124;-7.2474713;3.5123782;1020.74255;-;-;51.52502863;-0.1334877;0.0
1531048627689;-;-;0.7759864;1.2166699;9.6758795;-0.0087425625;0.052286215;0.17990814;-5.55;23.85;-39.9;51.878155;-7.336059;3.3329675;1020.74255;-;-;51.52502863;-0.1334877;0.0
1531048627679;-;-;0.6466553;1.2358302;9.374106;-0.040700495;0.08158098;0.16073339;-5.55;22.35;-40.2;52.100124;-7.2474713;3.5123782;1020.74255;-;-;51.52502863;-0.1334877;0.0
1531048627699;-;-;0.76161623;1.3603711;10.178833;0.088729136;-0.0025749048;0.19375658;-5.55;23.85;-39.9;51.878155;-7.336059;3.3329675;1020.74255;-;-;51.52502863;-0.1334877;0.0
1531048627709;-;-;0.91010743;1.1639795;10.068663;0.22401771;-0.0036401693;0.16659233;-7.05;22.050001;-39.0;51.603714;-7.294168;3.2550504;1020.74255;-;-;51.52502863;-0.1334877;0.0
1531048627720;-;-;0.96758795;1.0729688;9.6758795;0.29006413;0.012871429;0.12398175;-7.05;22.050001;-39.0;51.603714;-7.294168;3.2550504;1020.74255;-;-;51.52502863;-0.1334877;0.0
1531048627730;-;-;0.8047266;1.22146;9.249566;0.24478959;0.002746045;0.10318763;-5.25;22.35;-38.25;51.27905;-7.3109136;3.2403607;1020.74255;-;-;51.52502863;-0.1334877;0.0
1531048627741;-;-;0.67539555;1.341211;8.780142;0.050378818;0.14708938;0.095730774;-5.25;22.35;-38.25;51.27905;-7.3109136;3.2403607;1020.74255;-;-;51.52502863;-0.1334877;0.0
1531048627751;-;-;0.8143067;1.2310401;8.54543;-0.063604474;0.2727906;0.08933919;-5.4;21.6;-38.850002;51.005547;-7.577425;3.258758;1020.7411;-;-;51.52502863;-0.1334877;0.0
1531048627761;-;-;0.6658155;1.0346485;8.626861;-0.23830785;0.4549508;0.0515223;-5.4;21.6;-38.850002;51.005547;-7.577425;3.258758;1020.7411;-;-;51.52502863;-0.1334877;0.0
1531048627771;-;-;0.244292;1.0011182;9.0004835;-0.3352469;0.5268561;0.055250727;-6.4500003;22.650002;-38.100002;50.77686;-7.7744575;3.2213438;1020.7411;-;-;51.52502863;-0.1334877;0.0
1531048627781;-;-;-0.019160157;0.91010743;9.503438;-0.36294377;0.5375088;0.09732867;-6.4500003;22.650002;-38.100002;50.77686;-7.7744575;3.2213438;1020.7411;-;-;51.52502863;-0.1334877;0.0
1531048627792;-;-;0.081430666;0.97237796;10.015972;-0.3187353;0.49010456;0.1655056;-6.15;22.2;-39.600002;50.52817;-7.643427;2.8687294;1020.7411;-;-;51.52502863;-0.1334877;0.0
1531048627801;-;-;0.2921924;0.977168;10.092612;-0.24097101;0.4134055;0.21024671;-6.15;22.2;-39.600002;50.52817;-7.643427;2.8687294;1020.7411;-;-;51.52502863;-0.1334877;0.0
1531048627811;-;-;0.40715334;1.0873389;9.905801;-0.17492461;0.34629384;0.20758355;-6.6000004;22.800001;-37.800003;50.276924;-7.2658505;2.2849896;1020.7411;-;-;51.52502863;-0.1334877;0.0
1531048627821;-;-;0.3879932;1.0729688;9.637559;-0.14882563;0.26213795;0.19746353;-6.6000004;22.800001;-37.800003;50.276924;-7.2658505;2.2849896;1020.7411;-;-;51.52502863;-0.1334877;0.0
1531048627831;-;-;0.25866213;1.1256592;9.7812605;-0.12911825;0.13004515;0.19959407;-5.4;22.2;-38.4;49.915714;-6.9032364;1.7586287;1020.7411;-;-;51.52502863;-0.1334877;0.0
1531048627842;-;-;0.09580079;1.1879297;10.030342;-0.08224661;-0.038799267;0.23581305;-5.4;22.2;-38.4;49.915714;-6.9032364;1.7586287;1020.7411;-;-;51.52502863;-0.1334877;0.0
1531048627852;-;-;0.16765137;1.092129;9.992022;-0.023124428;-0.19113208;0.28215206;-6.4500003;22.95;-37.65;49.53438;-6.6894517;1.4028851;1020.73785;-;-;51.52502863;-0.1334877;0.0
1531048627862;-;-;0.2921924;0.9627979;10.111773;0.02641037;-0.2561132;0.2975984;-6.4500003;22.95;-37.65;49.53438;-6.6894517;1.4028851;1020.73785;-;-;51.52502863;-0.1334877;0.0
1531048627872;-;-;0.4981641;1.0825489;10.308165;0.09405466;-0.27528796;0.31517527;-6.0;23.85;-39.0;49.18215;-6.542581;1.2982433;1020.73785;-;-;51.52502863;-0.1334877;0.0
1531048627887;-;-;0.488584;1.1591895;10.289004;0.14785051;-0.2625048;0.33168685;-6.0;23.85;-39.0;49.18215;-6.542581;1.2982433;1020.73785;-;-;51.52502863;-0.1334877;0.0
1531048627893;-;-;0.60833496;1.1735597;10.102193;0.16862318;-0.17675102;0.33967635;-4.8;23.550001;-40.050003;48.79135;-6.5116735;1.548167;1020.73785;-;-;51.52502863;-0.1334877;0.0
1531048627903;-;-;0.60354495;1.1448194;10.0063925;0.16382949;-0.12934674;0.33807844;-4.8;23.550001;-40.050003;48.79135;-6.5116735;1.548167;1020.73785;-;-;51.52502863;-0.1334877;0.0
1531048627914;-;-;0.7807764;1.2741505;9.666299;0.08979361;-0.04146243;0.33115423;-5.4;22.2;-39.600002;48.368397;-6.606795;1.8952314;1020.73785;-;-;51.52502863;-0.1334877;0.0
1531048627924;-;-;0.7185059;1.3028907;9.671089;0.021084046;0.028312393;0.32316473;-7.8;23.25;-38.850002;47.903496;-6.7820325;2.152702;1020.73785;-;-;51.52502863;-0.1334877;0.0
1531048627934;-;-;0.6706055;1.336421;9.833951;-0.087572925;0.07891245;0.33701319;-7.8;23.25;-38.850002;47.903496;-6.7820325;2.152702;1020.73785;-;-;51.52502863;-0.1334877;0.0
1531048627945;-;-;0.6849756;1.1879297;10.202784;-0.11633507;0.094891414;0.33488265;-6.4500003;23.25;-40.050003;47.903496;-6.7820325;2.152702;1020.73785;-;-;51.52502863;-0.1334877;0.0
1531048627955;-;-;0.7664063;1.2166699;10.557246;-0.09556241;0.09968511;0.30026156;-6.4500003;23.25;-40.050003;47.437344;-6.880029;2.2532277;1020.73834;-;-;51.52502863;-0.1334877;0.0
1531048627965;-;-;0.8143067;1.3124708;10.696157;-0.06626764;0.07837982;0.277891;-6.4500003;23.25;-39.600002;46.96061;-6.789144;2.2168338;1020.73834;-;-;51.52502863;-0.1334877;0.0
1531048627975;-;-;0.8334668;1.3891114;10.657837;-0.010341254;0.050682947;0.2283562;-6.4500003;23.25;-39.600002;46.96061;-6.789144;2.2168338;1020.73834;-;-;51.52502863;-0.1334877;0.0
1531048627986;-;-;0.7185059;1.2933106;10.633887;0.02641037;0.038965035;0.21983409;-7.65;22.050001;-39.9;46.501053;-6.6575265;2.1445825;1020.73834;-;-;51.52502863;-0.1334877;0.0
1531048627996;-;-;0.63707525;1.1975098;10.739268;0.08393465;0.03044292;0.24380253;-7.65;22.050001;-39.9;46.501053;-6.6575265;2.1445825;1020.73834;-;-;51.52502863;-0.1334877;0.0
1531048628008;-;-;0.5508545;1.1879297;10.6817875;0.15211158;0.029910289;0.25232464;-6.7500005;25.050001;-40.050003;46.119785;-6.621077;2.1110342;1020.73834;-;-;51.52502863;-0.1334877;0.0
1531048628017;-;-;0.6466553;1.2885206;10.360855;0.23573484;0.013931322;0.22888884;-6.7500005;25.050001;-40.050003;46.119785;-6.621077;2.1110342;1020.73834;-;-;51.52502863;-0.1334877;0.0
1531048628028;-;-;0.6179151;1.3699512;10.221944;0.29965073;0.013931322;0.1985288;-7.65;23.1;-40.65;45.766357;-6.689484;2.1023495;1020.73834;-;-;51.52502863;-0.1334877;0.0
1531048628037;-;-;0.62749517;1.456172;9.963282;0.34226128;-0.0063087028;0.16976665;-7.65;23.1;-40.65;45.766357;-6.689484;2.1023495;1020.73834;-;-;51.52502863;-0.1334877;0.0
1531048628047;-;-;0.6227051;1.5040723;9.70941;0.36836028;-0.0105697615;0.15378769;-7.5000005;24.0;-39.300003;45.400497;-6.9002786;2.114494;1020.73834;-;-;51.52502863;-0.1334877;0.0
1531048628057;-;-;0.6706055;1.5567628;9.378897;0.36995816;-0.035603475;0.088806555;-7.5000005;24.0;-39.300003;45.400497;-6.9002786;2.114494;1020.7361;-;-;51.52502863;-0.1334877;0.0
1531048628068;-;-;0.6945557;1.7387843;9.148975;0.32788023;-0.052647706;0.033412807;-7.65;23.1;-38.25;45.099903;-7.2524395;2.1331851;1020.7361;-;-;51.52502863;-0.1334877;0.0
