TimeStamp[ms];Prox[Cm];Lux[lux];AccX[m/s^2];AccY[m/s^2];AccZ[m/s^2];GyroX[rad/s];GyroY[rad/s];GyroZ[rad/s];MagnX[uT];MagnY[uT];MagnZ[uT];OrienYaw[degrees];OrienPitch[degrees];OrienRoll[degrees];Press[Pa];Temp[C°];Batt[%];Lat;Lng;Speed[m/s]
1531048200154;-;-;0.34967285;1.7387843;9.484278;0.080762416;0.03752621;-0.048509583;-14.1;40.5;-39.300003;17.271296;-10.608401;0.25950643;0.0;-;-;51.52536432;-0.133432;0.0
1531048200154;-;-;0.34967285;1.7387843;9.484278;0.080762416;0.03752621;-0.048509583;-14.1;40.5;-39.300003;17.271296;-10.608401;0.25950643;0.0;-;-;51.52536432;-0.133432;0.0
1531048200171;-;-;0.1820215;1.7962648;9.259146;0.06265292;0.035928313;-0.06981487;-16.650002;41.7;-40.65;17.314846;-10.661703;0.26921362;0.0;-;-;51.52536432;-0.133432;0.0
1531048200173;-;-;0.1820215;1.7962648;9.259146;0.050935015;0.036460947;-0.0703475;-16.650002;41.7;-40.65;17.314846;-10.661703;0.26921362;0.0;-;-;51.52536432;-0.133432;0.0
1531048200184;-;-;0.1101709;1.9160157;9.398057;8.670221E-4;-0.0034902631;-0.053318426;-16.650002;41.7;-40.65;17.314846;-10.661703;0.26921362;0.0;-;-;51.52536432;-0.133432;0.0
1531048200194;-;-;0.12933107;1.8968556;9.618399;-0.01884037;7.707948E-4;-0.040535253;-14.400001;41.850002;-39.600002;17.373028;-10.747905;0.21410418;0.0;-;-;51.52536432;-0.133432;0.0
1531048200203;-;-;0.21076173;1.7962648;9.508228;-0.015111946;0.011956072;-0.036806826;-14.400001;41.850002;-39.600002;17.373028;-10.747905;0.21410418;0.0;-;-;51.52536432;-0.133432;0.0
1531048200213;-;-;0.22513184;1.8154249;9.627979;-0.008187726;0.031663463;-0.030947872;-15.6;42.300003;-39.9;17.442928;-10.762629;0.19297156;0.0;-;-;51.52536432;-0.133432;0.0
1531048200223;-;-;0.2203418;1.7818946;9.460327;-0.021503532;0.07746984;-0.035741564;-15.6;42.300003;-39.9;17.442928;-10.762629;0.19297156;1020.7488;-;-;51.52536432;-0.133432;0.0
1531048200233;-;-;0.16765137;1.6621436;9.532178;-0.04227619;0.08492669;-0.029882608;-16.95;40.95;-39.0;17.483128;-10.74557;0.17613976;1020.7488;-;-;51.52536432;-0.133432;0.0
1531048200244;-;-;0.12933107;1.7914747;9.704619;-0.048667774;0.08066563;-0.041067883;-16.95;40.95;-39.0;17.483128;-10.74557;0.17613976;1020.7488;-;-;51.52536432;-0.133432;0.0
1531048200254;-;-;0.033530276;1.7675245;9.867481;-0.055591993;0.058295075;-0.028284712;-14.400001;39.75;-39.600002;17.506056;-10.729678;0.095320135;1020.7488;-;-;51.52536432;-0.133432;0.0
1531048200264;-;-;-0.033530276;1.8250049;9.992022;-0.041743558;0.039652947;-0.027219446;-14.400001;39.75;-39.600002;17.506056;-10.729678;0.095320135;1020.7488;-;-;51.52536432;-0.133432;0.0
1531048200274;-;-;-0.15328126;1.7387843;9.833951;-0.027895119;0.032728728;-0.0021857326;-14.700001;41.100002;-39.600002;17.52935;-10.678345;-0.00510706;1020.7488;-;-;51.52536432;-0.133432;0.0
1531048200284;-;-;-0.20597169;1.8441651;9.656719;-0.022568796;0.05190349;0.006336383;-14.700001;41.100002;-39.600002;17.52935;-10.678345;-0.00510706;1020.7488;-;-;51.52536432;-0.133432;0.0
1531048200295;-;-;-0.17723145;1.7579445;9.81;-0.023101429;0.03326136;0.020184822;-14.85;42.300003;-38.7;17.549536;-10.623601;-0.060711212;1020.7488;-;-;51.52536432;-0.133432;0.0
1531048200305;-;-;-0.06706055;1.7339942;9.79084;-0.04227619;0.0071623814;0.030837465;-14.85;42.300003;-38.7;17.549536;-10.623601;-0.060711212;1020.7488;-;-;51.52536432;-0.133432;0.0
1531048200315;-;-;0.043110352;1.7866846;10.102193;-0.043341454;0.0018360593;0.021250086;-15.450001;40.800003;-40.5;17.540148;-10.594642;-0.10048782;1020.7488;-;-;51.52536432;-0.133432;0.0
1531048200325;-;-;0.1101709;1.7723145;10.059082;-0.024166692;0.009292911;0.008466912;-15.450001;40.800003;-40.5;17.540148;-10.594642;-0.10048782;1020.7697;-;-;51.52536432;-0.133432;0.0
1531048200336;-;-;0.119750984;1.7004639;10.054293;-0.01404668;0.017282393;-5.878359E-4;-16.650002;42.0;-39.0;17.504791;-10.558789;-0.10895994;1020.7697;-;-;51.52536432;-0.133432;0.0
1531048200346;-;-;0.100590825;1.7339942;9.920172;0.0035301833;0.0098255435;-0.013903642;-16.650002;42.0;-39.0;17.504791;-10.558789;-0.10895994;1020.7697;-;-;51.52536432;-0.133432;0.0
1531048200357;-;-;0.014370117;1.7339942;9.75731;-0.0028614034;-0.00508816;-0.014436273;-15.3;40.65;-39.45;17.48386;-10.516851;-0.1049855;1020.7697;-;-;51.52536432;-0.133432;0.0
1531048200367;-;-;0.019160157;1.7771046;9.690249;-0.009785622;-0.023197656;-0.014436273;-15.3;40.65;-39.45;17.48386;-10.516851;-0.1049855;1020.7697;-;-;51.52536432;-0.133432;0.0
1531048200391;-;-;-0.17723145;1.8345851;9.72378;-0.010318255;0.027402405;-0.0064467904;-13.35;41.850002;-39.300003;17.513165;-10.505667;-0.109678596;1020.7697;-;-;51.52536432;-0.133432;0.0
1531048200391;-;-;-0.17723145;1.8345851;9.72378;-0.010318255;0.027402405;-0.0064467904;-13.35;41.850002;-39.300003;17.513165;-10.505667;-0.109678596;1020.7697;-;-;51.52536432;-0.133432;0.0
1531048200401;-;-;-0.42152345;1.7818946;9.72857;-0.0060571968;0.06734983;0.008999545;-13.35;41.850002;-39.300003;17.513165;-10.505667;-0.109678596;1020.7697;-;-;51.52536432;-0.133432;0.0
1531048200419;-;-;-0.25866213;1.7148341;9.905801;-0.014579313;0.043914005;0.04841433;-14.700001;42.9;-39.600002;17.530596;-10.493792;-0.11323244;1020.78796;-;-;51.52536432;-0.133432;0.0
1531048200436;-;-;0.009580079;1.6094532;9.82437;-0.019905634;-0.024795553;0.04575117;-15.6;42.0;-39.9;17.504236;-10.487126;-0.18158314;1020.78796;-;-;51.52536432;-0.133432;0.0
1531048200437;-;-;0.009580079;1.6094532;9.82437;-0.019905634;-0.024795553;0.04575117;-15.6;42.0;-39.9;17.504236;-10.487126;-0.18158314;1020.78796;-;-;51.52536432;-0.133432;0.0
1531048200452;-;-;0.033530276;1.5663428;9.82437;-0.0049919323;-0.037046093;0.028706938;-15.150001;41.850002;-40.95;17.440958;-10.46783;-0.2147712;1020.78796;-;-;51.52536432;-0.133432;0.0
1531048200453;-;-;0.1101709;1.585503;9.7142;0.0013996543;-0.0338503;0.028706938;-15.150001;41.850002;-40.95;17.440958;-10.46783;-0.2147712;1020.78796;-;-;51.52536432;-0.133432;0.0
1531048200469;-;-;0.1101709;1.7387843;9.704619;0.0056607123;0.010890807;0.008999545;-16.35;43.050003;-39.45;17.395403;-10.451965;-0.1710634;1020.78796;-;-;51.52536432;-0.133432;0.0
1531048200486;-;-;0.028740235;1.6190332;9.7142;0.014715459;0.04018558;0.0047384864;-16.35;43.050003;-39.45;17.395403;-10.451965;-0.1710634;1020.78796;-;-;51.52536432;-0.133432;0.0
1531048200486;-;-;0.028740235;1.6190332;9.7142;0.014715459;0.04018558;0.0047384864;-16.35;43.050003;-39.45;17.395403;-10.451965;-0.1710634;1020.78796;-;-;51.52536432;-0.133432;0.0
1531048200503;-;-;0.081430666;1.7387843;9.733359;0.008856505;0.032196097;0.011662705;-17.85;42.15;-41.25;17.378283;-10.454417;-0.15100318;1020.78796;-;-;51.52536432;-0.133432;0.0
1531048200503;-;-;0.081430666;1.7387843;9.733359;0.008856505;0.032196097;0.011662705;-17.85;42.15;-41.25;17.378283;-10.454417;-0.15100318;1020.78796;-;-;51.52536432;-0.133432;0.0
1531048200520;-;-;0.081430666;1.7004639;9.877061;-0.008720359;0.017815026;0.018586924;-16.800001;41.4;-41.7;17.360275;-10.467043;-0.18622917;1020.79285;-;-;51.52536432;-0.133432;0.0
1531048200536;-;-;0.16286133;1.7531544;9.977652;-0.01617721;0.014619232;0.0052711186;-16.050001;41.100002;-40.95;17.334497;-10.476556;-0.22482704;1020.79285;-;-;51.52536432;-0.133432;0.0
1531048200536;-;-;0.16286133;1.7531544;9.977652;-0.01617721;0.014619232;0.0052711186;-16.050001;41.100002;-40.95;17.334497;-10.476556;-0.22482704;1020.79285;-;-;51.52536432;-0.133432;0.0
1531048200554;-;-;0.2203418;1.7244141;9.939331;-0.0060571968;0.04977296;-0.0021857326;-14.250001;40.95;-39.0;17.306608;-10.467102;-0.2367983;1020.79285;-;-;51.52536432;-0.133432;0.0
1531048200554;-;-;0.2203418;1.7244141;9.939331;-0.0060571968;0.04977296;-0.0021857326;-14.250001;40.95;-39.0;17.306608;-10.467102;-0.2367983;1020.79285;-;-;51.52536432;-0.133432;0.0
1531048200571;-;-;0.16765137;1.7387843;9.857901;-0.0055245645;0.058827706;-0.0069794226;-14.1;41.100002;-39.600002;17.290682;-10.454702;-0.26099306;1020.79285;-;-;51.52536432;-0.133432;0.0
1531048200587;-;-;0.07664063;1.7675245;9.843531;-0.001796139;0.0455119;-0.003250997;-14.1;41.100002;-39.600002;17.290682;-10.454702;-0.26099306;1020.79285;-;-;51.52536432;-0.133432;0.0
1531048200586;-;-;0.07664063;1.7675245;9.843531;-0.001796139;0.0455119;-0.003250997;-14.1;41.100002;-39.600002;17.290682;-10.454702;-0.26099306;1020.79285;-;-;51.52536432;-0.133432;0.0
1531048200603;-;-;0.019160157;1.7675245;9.7621;-0.009785622;0.019945554;-0.0011204681;-15.6;42.300003;-40.65;17.285913;-10.448206;-0.32383284;1020.79285;-;-;51.52536432;-0.133432;0.0
1531048200620;-;-;0.038320314;1.8106349;9.968072;-0.007655093;-0.0061534243;0.015391132;-15.150001;41.850002;-39.600002;17.282482;-10.4446125;-0.38468915;1020.79193;-;-;51.52536432;-0.133432;0.0
1531048200620;-;-;0.038320314;1.8106349;9.968072;-0.007655093;-0.0061534243;0.015391132;-15.150001;41.850002;-39.600002;17.282482;-10.4446125;-0.38468915;1020.79193;-;-;51.52536432;-0.133432;0.0
1531048200636;-;-;0.1820215;1.7675245;10.087823;0.0035301833;-0.020001862;0.0047384864;-14.700001;41.4;-40.5;17.280664;-10.435544;-0.40741777;1020.79193;-;-;51.52536432;-0.133432;0.0
1531048200637;-;-;0.19160157;1.8250049;10.087823;0.0040628156;-0.025860816;0.011662705;-14.700001;41.4;-40.5;17.280664;-10.435544;-0.40741777;1020.79193;-;-;51.52536432;-0.133432;0.0
1531048200653;-;-;0.12933107;1.7723145;10.092612;0.032824956;-0.034382932;0.0068690157;-14.250001;42.300003;-39.45;17.267012;-10.419154;-0.39581284;1020.79193;-;-;51.52536432;-0.133432;0.0
1531048200655;-;-;0.10538086;1.7531544;9.953702;0.050401818;-0.037578728;-0.009109952;-14.250001;42.300003;-39.45;17.267012;-10.419154;-0.39581284;1020.79193;-;-;51.52536432;-0.133432;0.0
1531048200665;-;-;0.12933107;1.8058448;9.800421;0.057326037;-0.054090325;-0.013371009;-14.250001;42.300003;-39.45;17.267012;-10.419154;-0.39581284;1020.79193;-;-;51.52536432;-0.133432;0.0
1531048200675;-;-;0.16286133;1.8441651;9.7812605;0.054130245;-0.05515559;-0.010707848;-14.55;41.7;-38.25;17.262598;-10.433393;-0.37081346;1020.79193;-;-;51.52536432;-0.133432;0.0
1531048200685;-;-;0.13891114;1.7723145;9.627979;0.059988607;-0.0519638;-0.023507018;-14.55;41.7;-38.25;17.262598;-10.433393;-0.37081346;1020.79193;-;-;51.52536432;-0.133432;0.0
1531048200696;-;-;0.14849122;1.8729054;9.632769;0.050401226;-0.050898533;-0.008593315;-14.250001;41.25;-40.2;17.279222;-10.488105;-0.32393375;1020.79193;-;-;51.52536432;-0.133432;0.0
1531048200706;-;-;0.1341211;1.8776954;9.74294;0.04454227;-0.04557221;-0.0027343603;-14.250001;41.25;-40.2;17.279222;-10.488105;-0.32393375;1020.79193;-;-;51.52536432;-0.133432;0.0
1531048200716;-;-;0.13891114;1.8776954;9.814791;0.04400964;-0.030125877;-0.006462786;-13.650001;40.800003;-39.300003;17.310432;-10.547703;-0.26544023;1020.8009;-;-;51.52536432;-0.133432;0.0
1531048200726;-;-;0.13891114;1.8872755;9.862691;0.03442226;-0.03811536;-0.006995418;-13.650001;40.800003;-39.300003;17.310432;-10.547703;-0.26544023;1020.8009;-;-;51.52536432;-0.133432;0.0
1531048200737;-;-;0.12454102;1.9064356;9.80521;0.02962857;-0.07273646;0.005787755;-14.700001;41.4;-39.600002;17.330523;-10.604733;-0.21628976;1020.8009;-;-;51.52536432;-0.133432;0.0
1531048200746;-;-;0.11496094;1.9112257;9.718989;0.023769615;-0.0652796;0.0015266975;-14.700001;41.4;-39.600002;17.330523;-10.604733;-0.21628976;1020.8009;-;-;51.52536432;-0.133432;0.0
1531048200756;-;-;0.06227051;1.9447559;9.78605;0.014714867;-0.05942065;0.0031245942;-15.150001;41.850002;-40.050003;17.344389;-10.649723;-0.17898357;1020.8009;-;-;51.52536432;-0.133432;0.0
1531048200767;-;-;0.11496094;1.8345851;9.75731;0.022171719;-0.05729012;-0.006995418;-15.150001;41.850002;-40.050003;17.344389;-10.649723;-0.17898357;1020.8009;-;-;51.52536432;-0.133432;0.0
1531048200776;-;-;0.17244141;1.7435743;9.70941;0.024302248;-0.061018545;-0.009658579;-14.250001;40.65;-38.25;17.358236;-10.684607;-0.10890093;1020.8009;-;-;51.52536432;-0.133432;0.0
1531048200786;-;-;0.16286133;1.8154249;9.81958;0.033356994;-0.061018545;-0.02617018;-14.250001;40.65;-38.25;17.358236;-10.684607;-0.10890093;1020.8009;-;-;51.52536432;-0.133432;0.0
1531048200797;-;-;0.20118165;1.8106349;9.68067;0.03388963;-0.041843783;-0.02883334;-14.85;41.7;-39.9;17.372023;-10.704604;-0.03787276;1020.8009;-;-;51.52536432;-0.133432;0.0
1531048200807;-;-;0.16286133;1.8824854;9.599238;0.025367511;-0.0130816465;-0.038953353;-14.85;41.7;-39.9;17.372023;-10.704604;-0.03787276;1020.8009;-;-;51.52536432;-0.133432;0.0
1531048200817;-;-;0.09101075;2.0309765;9.651929;0.010453809;0.04497527;-0.029898604;-15.6;40.95;-39.9;17.404676;-10.739784;0.020162504;1020.8142;-;-;51.52536432;-0.133432;0.0
1531048200828;-;-;0.17244141;1.8681153;9.704619;-1.9883527E-4;0.060954235;-0.038953353;-15.6;40.95;-39.9;17.404676;-10.739784;0.020162504;1020.8142;-;-;51.52536432;-0.133432;0.0
1531048200837;-;-;0.019160157;1.8441651;9.934542;0.006725384;0.04976896;-0.032561764;-14.250001;41.25;-38.7;17.450092;-10.777239;0.051486712;1020.8142;-;-;51.52536432;-0.133432;0.0
1531048200847;-;-;-0.19160157;1.8633252;9.915381;0.002996958;0.026865771;-0.025104914;-14.250001;41.25;-38.7;17.450092;-10.777239;0.051486712;1020.8142;-;-;51.52536432;-0.133432;0.0
1531048200857;-;-;-0.25866213;1.8872755;9.8866415;-0.005525158;0.006093114;-0.0027343603;-15.150001;41.850002;-38.100002;17.477566;-10.78828;-0.008219171;1020.8142;-;-;51.52536432;-0.133432;0.0
1531048200868;-;-;-0.34009278;1.8824854;10.020762;-0.0044598933;-0.013614278;0.004722491;-14.250001;42.300003;-40.2;17.477566;-10.78828;-0.008219171;1020.8142;-;-;51.52536432;-0.133432;0.0
1531048200878;-;-;-0.22513184;1.949546;9.982442;0.011519074;-0.018940601;0.020701457;-14.250001;42.300003;-40.2;17.501495;-10.793903;-0.06231919;1020.8142;-;-;51.52536432;-0.133432;0.0
1531048200888;-;-;-0.14849122;1.7723145;9.915381;0.014714867;-0.014679544;0.021766722;-13.950001;40.65;-39.45;17.503849;-10.792376;-0.068750456;1020.8142;-;-;51.52536432;-0.133432;0.0
1531048200898;-;-;0.028740235;1.695674;9.7621;0.012584338;-0.005624795;0.009516181;-13.950001;40.65;-39.45;17.503849;-10.792376;-0.068750456;1020.8142;-;-;51.52536432;-0.133432;0.0
1531048200909;-;-;0.05269043;1.7292042;9.73815;0.012051706;0.01674576;-7.1199145E-5;-14.1;40.800003;-39.300003;17.503849;-10.792376;-0.068750456;1020.8142;-;-;51.52536432;-0.133432;0.0
1531048200919;-;-;0.081430666;1.7244141;9.666299;0.013116971;0.019408919;-0.011256477;-14.1;40.800003;-39.300003;17.489367;-10.802367;-0.04629876;1020.8157;-;-;51.52536432;-0.133432;0.0
1531048200929;-;-;-0.12933107;1.7339942;9.74294;0.0077906484;-0.030125877;-0.013387006;-13.200001;41.25;-39.45;17.485332;-10.814721;-0.04467147;1020.8157;-;-;51.52536432;-0.133432;0.0
1531048200939;-;-;0.13891114;1.7818946;9.4507475;-0.004992525;-0.034386933;-0.0101912115;-13.200001;41.25;-39.45;17.485332;-10.814721;-0.04467147;1020.8157;-;-;51.52536432;-0.133432;0.0
1531048200950;-;-;0.07185059;1.9016455;9.455538;-0.0044598933;-0.030125877;-7.1199145E-5;-14.55;41.25;-38.7;17.499039;-10.825904;-0.052556496;1020.8157;-;-;51.52536432;-0.133432;0.0
1531048200960;-;-;0.19639161;1.839375;9.508228;-0.02310202;-0.024266923;0.0031245942;-14.55;41.25;-38.7;17.499039;-10.825904;-0.052556496;1020.8157;-;-;51.52536432;-0.133432;0.0
1531048200970;-;-;0.2682422;1.8441651;9.546548;-0.041211516;-0.027462717;-0.004864889;-13.35;41.4;-38.850002;17.514921;-10.8264475;-0.02281614;1020.8157;-;-;51.52536432;-0.133432;0.0
1531048200981;-;-;0.25866213;1.8058448;9.733359;-0.03961362;-2.984727E-4;-0.013919637;-13.35;41.4;-38.850002;17.514921;-10.8264475;-0.02281614;1020.8157;-;-;51.52536432;-0.133432;0.0
1531048200991;-;-;0.26345217;1.8489552;9.78605;-0.04174415;0.013549965;-0.029365972;-14.250001;40.95;-40.2;17.515507;-10.799432;0.012116222;1020.8157;-;-;51.52536432;-0.133432;0.0
1531048201001;-;-;0.20597169;1.9064356;9.82437;-0.03535256;0.050834224;-0.025104914;-14.250001;40.95;-40.2;17.515507;-10.799432;0.012116222;1020.8157;-;-;51.52536432;-0.133432;0.0
1531048201012;-;-;0.15328126;1.8920655;9.901011;-0.03535256;0.05988897;-0.030431237;-15.3;40.65;-39.9;17.529293;-10.754678;0.020049166;1020.80695;-;-;51.52536432;-0.133432;0.0
1531048201021;-;-;0.07185059;1.8824854;10.011182;-0.022569388;0.048171062;-0.01924596;-15.3;40.65;-39.9;17.529293;-10.754678;0.020049166;1020.80695;-;-;51.52536432;-0.133432;0.0
1531048201031;-;-;-0.009580079;1.9591261;10.068663;0.010453809;0.062552124;-0.011256477;-13.35;41.850002;-40.95;17.549696;-10.7107725;-0.03033778;1020.80695;-;-;51.52536432;-0.133432;0.0
1531048201042;-;-;-0.086220704;1.9112257;9.905801;0.046672802;0.06521529;0.0153751355;-13.35;41.850002;-40.95;17.549696;-10.7107725;-0.03033778;1020.80695;-;-;51.52536432;-0.133432;0.0
1531048201051;-;-;-0.10538086;1.8537452;9.75731;0.022171719;0.030061563;0.016440399;-16.650002;41.25;-41.850002;17.564756;-10.684679;-0.099540874;1020.80695;-;-;51.52536432;-0.133432;0.0
1531048201061;-;-;-0.16765137;1.9974464;9.915381;-0.023634654;-0.08019331;0.046800435;-16.650002;41.25;-41.850002;17.564756;-10.684679;-0.099540874;1020.80695;-;-;51.52536432;-0.133432;0.0
1531048201071;-;-;-0.043110352;1.9160157;10.039923;-0.026830446;-0.10469439;0.04733307;-14.1;41.4;-38.4;17.539991;-10.727509;-0.16351034;1020.80695;-;-;51.52536432;-0.133432;0.0
1531048201081;-;-;0.019160157;1.9399658;10.135723;0.0019316936;-0.10096597;0.06331204;-14.1;41.4;-38.4;17.539991;-10.727509;-0.16351034;1020.80695;-;-;51.52536432;-0.133432;0.0
1531048201092;-;-;0.06706055;1.8872755;10.001602;0.022704352;-0.07433435;0.05745308;-14.85;41.7;-40.2;17.503143;-10.712093;-0.096339;1020.80695;-;-;51.52536432;-0.133432;0.0
1531048201102;-;-;0.16765137;1.829795;9.814791;0.059455976;-0.00935322;0.039343584;-14.85;41.7;-40.2;17.503143;-10.712093;-0.096339;1020.80695;-;-;51.52536432;-0.133432;0.0
1531048201112;-;-;0.21076173;1.7962648;9.608819;0.050401226;0.016213126;0.031354103;-14.700001;41.850002;-39.300003;17.45741;-10.7039175;0.035570025;1020.8083;-;-;51.52536432;-0.133432;0.0
1531048201122;-;-;0.19160157;1.8489552;9.498648;0.023769615;0.05030159;0.01164671;-14.700001;41.850002;-39.300003;17.45741;-10.7039175;0.035570025;1020.8083;-;-;51.52536432;-0.133432;0.0
1531048201133;-;-;0.09580079;1.8824854;9.656719;-0.01830833;0.05722581;-0.0032669925;-14.400001;41.100002;-39.300003;17.412691;-10.761529;0.068573296;1020.8083;-;-;51.52536432;-0.133432;0.0
1531048201142;-;-;0.06706055;1.829795;9.72857;-0.0177757;0.05722581;0.0036572265;-14.400001;41.100002;-39.300003;17.412691;-10.761529;0.068573296;1020.8083;-;-;51.52536432;-0.133432;0.0
1531048201152;-;-;0.07185059;1.8441651;10.0063925;-0.017243067;0.054030016;-7.1199145E-5;-14.55;41.25;-41.100002;17.391155;-10.793479;0.023984317;1020.8083;-;-;51.52536432;-0.133432;0.0
1531048201163;-;-;0.038320314;1.7818946;10.073453;-0.0023293642;0.013017332;0.0068530203;-14.55;41.25;-41.100002;17.391155;-10.793479;0.023984317;1020.8083;-;-;51.52536432;-0.133432;0.0
1531048201172;-;-;0.038320314;1.8202149;9.977652;0.016845396;-0.009885853;0.0031245942;-15.150001;40.050003;-39.300003;17.381472;-10.771642;-0.038821943;1020.8083;-;-;51.52536432;-0.133432;0.0
1531048201182;-;-;-0.023950197;1.8250049;9.872271;0.037618395;-0.007753006;0.003666487;-15.150001;40.050003;-39.300003;17.381472;-10.771642;-0.038821943;1020.8083;-;-;51.52536432;-0.133432;0.0
1531048201201;-;-;-0.014370117;1.8537452;9.608819;0.037085764;0.0018343738;-6.193854E-5;-14.250001;42.0;-40.2;17.375916;-10.766438;-0.067613974;1020.8083;-;-;51.52536432;-0.133432;0.0
1531048201203;-;-;-0.014370117;1.8537452;9.608819;0.037085764;0.0018343738;-6.193854E-5;-14.250001;42.0;-40.2;17.375916;-10.766438;-0.067613974;1020.8083;-;-;51.52536432;-0.133432;0.0
1531048201216;-;-;-0.014370117;1.7818946;9.469908;0.022172062;0.014617546;0.007927544;-15.750001;41.850002;-40.050003;17.374216;-10.8065815;-0.060524024;1020.81195;-;-;51.52536432;-0.133432;0.0
1531048201226;-;-;0.081430666;1.9112257;9.426797;0.017378371;0.032727044;0.0073949127;-15.750001;41.850002;-40.050003;17.374216;-10.8065815;-0.060524024;1020.81195;-;-;51.52536432;-0.133432;0.0
1531048201233;-;-;0.023950197;1.8250049;9.474698;-0.0012637564;0.04870601;0.0015359581;-15.150001;42.45;-41.25;17.374735;-10.850266;-0.059271753;1020.81195;-;-;51.52536432;-0.133432;0.0
1531048201243;-;-;-0.043110352;1.8776954;9.5561285;-0.025232207;0.05616286;0.014319131;-15.150001;42.45;-41.25;17.374735;-10.850266;-0.059271753;1020.81195;-;-;51.52536432;-0.133432;0.0
1531048201258;-;-;0.06227051;1.7579445;9.85311;-0.043874335;0.03911863;0.013786498;-16.050001;42.45;-40.5;17.36208;-10.871756;-0.07967716;1020.81195;-;-;51.52536432;-0.133432;0.0
1531048201264;-;-;0.09101075;1.839375;9.968072;-0.036417484;0.027933352;0.016982293;-16.050001;42.45;-40.5;17.36208;-10.871756;-0.07967716;1020.81195;-;-;51.52536432;-0.133432;0.0
1531048201275;-;-;0.019160157;1.7675245;9.992022;-0.029493265;-0.0056224773;0.01644966;-15.450001;42.15;-40.5;17.336996;-10.859115;-0.13724189;1020.81195;-;-;51.52536432;-0.133432;0.0
1531048201284;-;-;0.05748047;1.8250049;10.025552;-0.015644826;-0.011481431;0.015384397;-15.450001;42.15;-40.5;17.336996;-10.859115;-0.13724189;1020.81195;-;-;51.52536432;-0.133432;0.0
1531048201295;-;-;0.1580713;1.7771046;9.75731;-0.0044595497;-0.014144593;0.015384397;-14.400001;41.100002;-40.5;17.31531;-10.817638;-0.17802425;1020.81195;-;-;51.52536432;-0.133432;0.0
1531048201308;-;-;0.19639161;1.7531544;9.6615095;-0.0028616532;0.009291225;0.0026012226;-14.700001;41.850002;-38.100002;17.29946;-10.792536;-0.16540712;1020.8025;-;-;51.52536432;-0.133432;0.0
1531048201315;-;-;0.06706055;1.6908839;9.718989;8.667725E-4;0.028998617;-0.0075187897;-14.700001;41.850002;-38.100002;17.29946;-10.792536;-0.16540712;1020.8025;-;-;51.52536432;-0.133432;0.0
1531048201325;-;-;0.038320314;1.7579445;9.699829;0.0077909916;0.056695495;-0.017638803;-14.700001;41.850002;-38.100002;17.29946;-10.792536;-0.16540712;1020.8025;-;-;51.52536432;-0.133432;0.0
1531048201336;-;-;0.028740235;1.8250049;9.627979;0.0077909916;0.070011295;-0.001127203;-14.400001;40.5;-38.850002;17.291891;-10.786855;-0.16356008;1020.8025;-;-;51.52536432;-0.133432;0.0
1531048201345;-;-;-0.1341211;1.7627344;9.580078;-0.0039269174;0.06361971;0.0047317515;-14.400001;40.5;-38.850002;17.291891;-10.786855;-0.16356008;1020.8025;-;-;51.52536432;-0.133432;0.0
1531048201361;-;-;-0.1341211;1.7627344;9.69504;-0.034286954;0.01781334;0.027102305;-15.3;41.7;-41.100002;17.288315;-10.789686;-0.21532989;1020.8025;-;-;51.52536432;-0.133432;0.0
1531048201365;-;-;-0.05748047;1.7627344;9.74773;-0.027362736;0.015150179;0.030298099;-15.3;41.7;-41.100002;17.288315;-10.789686;-0.21532989;1020.8025;-;-;51.52536432;-0.133432;0.0
1531048201378;-;-;0.043110352;1.6669337;9.8866415;-0.046004865;-0.01574249;0.034559157;-15.150001;42.15;-40.95;17.27452;-10.7925;-0.2828582;1020.8025;-;-;51.52536432;-0.133432;0.0
1531048201386;-;-;0.11496094;1.7579445;9.857901;-0.031623792;-0.012014064;0.03083073;-15.150001;42.15;-40.95;17.27452;-10.7925;-0.2828582;1020.8025;-;-;51.52536432;-0.133432;0.0
1531048201396;-;-;0.17244141;1.719624;9.905801;-0.021503782;-0.013079328;0.026569672;-14.400001;42.15;-39.600002;17.240475;-10.76703;-0.30387437;1020.8025;-;-;51.52536432;-0.133432;0.0
1531048201410;-;-;0.15328126;1.6573536;9.77168;-0.011916401;-0.0018940518;0.0041991193;-14.700001;40.5;-38.850002;17.209698;-10.726954;-0.28721023;1020.80426;-;-;51.52536432;-0.133432;0.0
1531048201416;-;-;0.119750984;1.7579445;9.632769;-0.008187976;0.011954387;-0.008584054;-14.700001;40.5;-38.850002;17.209698;-10.726954;-0.28721023;1020.80426;-;-;51.52536432;-0.133432;0.0
1531048201427;-;-;0.100590825;1.7627344;9.68067;-0.01404693;0.019943869;-0.014443008;-14.400001;41.850002;-40.95;17.209698;-10.726954;-0.28721023;1020.80426;-;-;51.52536432;-0.133432;0.0
1531048201436;-;-;0.038320314;1.7914747;9.589659;-0.021503782;0.035922837;-0.023497757;-14.400001;41.850002;-40.95;17.19613;-10.707588;-0.2729881;1020.80426;-;-;51.52536432;-0.133432;0.0
1531048201446;-;-;0.05269043;1.7962648;9.594449;-0.026830103;0.03911863;-0.016573537;-15.450001;42.15;-39.300003;17.19613;-10.707588;-0.2729881;1020.80426;-;-;51.52536432;-0.133432;0.0
1531048201460;-;-;-0.0047900393;1.7387843;9.599238;-0.050265923;0.046575483;-0.011247216;-15.450001;42.15;-39.300003;17.201307;-10.69453;-0.2889275;1020.80426;-;-;51.52536432;-0.133432;0.0
1531048201467;-;-;-0.014370117;1.8489552;9.6758795;-0.049200658;0.047108114;-0.018704066;-15.900001;42.300003;-41.100002;17.213657;-10.66526;-0.33530197;1020.80426;-;-;51.52536432;-0.133432;0.0
1531048201476;-;-;-0.028740235;1.7483643;9.75252;-0.058255404;0.036988102;0.0010033259;-15.900001;42.300003;-41.100002;17.213657;-10.66526;-0.33530197;1020.80426;-;-;51.52536432;-0.133432;0.0
1531048201486;-;-;-0.07185059;1.8441651;9.948912;-0.04973329;0.02473756;0.010590706;-15.450001;41.100002;-38.850002;17.220366;-10.611262;-0.3852737;1020.80426;-;-;51.52536432;-0.133432;0.0
1531048201496;-;-;0.05748047;1.8968556;9.920172;-0.057722773;0.009823858;0.014851764;-15.450001;41.100002;-38.850002;17.220366;-10.611262;-0.3852737;1020.80426;-;-;51.52536432;-0.133432;0.0
1531048201511;-;-;0.14370118;1.8010547;10.154883;-0.040678542;0.007160696;0.0026012226;-14.250001;40.65;-40.2;17.211058;-10.545168;-0.41891918;1020.80334;-;-;51.52536432;-0.133432;0.0
1531048201517;-;-;0.081430666;1.7914747;10.126143;-0.032689057;0.0013017416;-0.0069861575;-14.250001;40.65;-40.2;17.211058;-10.545168;-0.41891918;1020.80334;-;-;51.52536432;-0.133432;0.0
1531048201528;-;-;0.038320314;1.7627344;10.039923;-0.02363431;-8.2878734E-4;-0.0064535253;-15.750001;40.050003;-41.25;17.198503;-10.489635;-0.42550078;1020.80334;-;-;51.52536432;-0.133432;0.0
1531048201537;-;-;-0.023950197;1.7818946;10.068663;-0.007122711;0.0066280635;-0.018704066;-15.750001;40.050003;-41.25;17.198503;-10.489635;-0.42550078;1020.80334;-;-;51.52536432;-0.133432;0.0
1531048201548;-;-;-0.023950197;1.7962648;9.944121;0.001932037;0.015150179;-0.020301964;-15.150001;42.45;-41.7;17.20652;-10.4565525;-0.42444357;1020.80334;-;-;51.52536432;-0.133432;0.0
1531048201560;-;-;-0.11496094;1.7962648;9.733359;-0.0017963886;0.019411236;-0.012845112;-15.150001;42.45;-41.7;17.20652;-10.4565525;-0.42444357;1020.80334;-;-;51.52536432;-0.133432;0.0
1531048201568;-;-;-0.07664063;1.7723145;9.718989;-0.0033942854;0.01301965;-0.0075187897;-16.5;42.9;-41.25;17.225105;-10.453307;-0.43547004;1020.80334;-;-;51.52536432;-0.133432;0.0
1531048201579;-;-;-0.09580079;1.705254;9.7812605;-0.008187976;0.033259675;-0.009116687;-16.5;42.9;-41.25;17.225105;-10.453307;-0.43547004;1020.80334;-;-;51.52536432;-0.133432;0.0
1531048201588;-;-;-0.038320314;1.7148341;9.671089;-0.0065900786;0.042314425;-0.0043229964;-14.55;41.7;-40.2;17.23803;-10.455288;-0.4583907;1020.80334;-;-;51.52536432;-0.133432;0.0
1531048201598;-;-;-0.033530276;1.7244141;9.79084;-0.0028616532;0.052434437;-6.193854E-5;-14.55;41.7;-40.2;17.23803;-10.455288;-0.4583907;1020.79474;-;-;51.52536432;-0.133432;0.0
1531048201612;-;-;-0.0047900393;1.6669337;9.79563;-0.0028616532;0.044977587;-0.0016598352;-13.650001;42.45;-39.600002;17.238047;-10.447661;-0.50088024;1020.79474;-;-;51.52536432;-0.133432;0.0
1531048201619;-;-;-0.014370117;1.7723145;9.766891;-0.0033942854;0.032194413;0.0041991193;-13.650001;42.45;-39.600002;17.238047;-10.447661;-0.50088024;1020.79474;-;-;51.52536432;-0.133432;0.0
1531048201628;-;-;-0.05269043;1.7435743;9.704619;-0.011383769;0.010889121;0.0047317515;-14.700001;40.800003;-39.600002;17.232885;-10.443625;-0.5523443;1020.79474;-;-;51.52536432;-0.133432;0.0
1531048201638;-;-;-0.06706055;1.695674;9.74294;-0.01884062;-0.02053618;0.020178087;-14.700001;40.800003;-39.600002;17.232885;-10.443625;-0.5523443;1020.79474;-;-;51.52536432;-0.133432;0.0
1531048201648;-;-;-0.05748047;1.8010547;9.79563;-0.040145908;-0.045037262;0.013253868;-14.700001;42.45;-40.95;17.223383;-10.436179;-0.5796496;1020.79474;-;-;51.52536432;-0.133432;0.0
1531048201661;-;-;-0.1341211;1.7866846;9.800421;-0.031623792;-0.0423741;0.028700203;-14.700001;42.45;-40.95;17.223383;-10.436179;-0.5796496;1020.79474;-;-;51.52536432;-0.133432;0.0
1531048201669;-;-;0.0047900393;1.7771046;9.77168;-0.03801538;-0.037047777;0.019645454;-15.6;41.7;-41.100002;17.213057;-10.41025;-0.55198705;1020.79474;-;-;51.52536432;-0.133432;0.0
1531048201679;-;-;0.12933107;1.7148341;9.85311;-0.029493265;0.0028996384;0.0031338548;-15.6;41.7;-41.100002;17.213057;-10.41025;-0.55198705;1020.79474;-;-;51.52536432;-0.133432;0.0
1531048201689;-;-;0.07664063;1.7339942;9.877061;-0.022036929;0.0076898523;0.0041852286;-14.250001;41.25;-41.850002;17.196972;-10.372666;-0.49815735;1020.79474;-;-;51.52536432;-0.133432;0.0
1531048201700;-;-;-0.028740235;1.7675245;9.867481;-0.022036929;0.038582522;-0.011793738;-14.250001;41.25;-41.850002;17.196972;-10.372666;-0.49815735;1020.7922;-;-;51.52536432;-0.133432;0.0
1531048201711;-;-;-0.06706055;1.7914747;9.72378;-0.02043903;0.046039373;-0.017652694;-13.05;41.4;-39.600002;17.18891;-10.34294;-0.49130055;1020.7922;-;-;51.52536432;-0.133432;0.0
1531048201720;-;-;-0.047900394;1.8345851;9.896221;-0.018841134;0.05030043;-0.018185325;-13.05;41.4;-39.600002;17.18891;-10.34294;-0.49130055;1020.7922;-;-;51.52536432;-0.133432;0.0
1531048201730;-;-;-0.043110352;1.8729054;9.987232;-0.017243238;0.039115153;-0.009130578;-14.85;42.0;-39.9;17.195715;-10.324726;-0.53540397;1020.7922;-;-;51.52536432;-0.133432;0.0
1531048201745;-;-;0.0;1.7339942;9.891431;-0.013514813;0.020473026;0.005783125;-14.85;42.600002;-40.65;17.202164;-10.301389;-0.59076947;1020.7922;-;-;51.52536432;-0.133432;0.0
1531048201751;-;-;0.06227051;1.7962648;9.963282;-0.019906398;0.01940776;9.89435E-4;-14.85;42.600002;-40.65;17.202164;-10.301389;-0.59076947;1020.7922;-;-;51.52536432;-0.133432;0.0
1531048201763;-;-;0.06706055;1.7579445;9.934542;-0.009253755;0.032190938;0.008978919;-14.85;42.600002;-40.65;17.202164;-10.301389;-0.59076947;1020.7922;-;-;51.52536432;-0.133432;0.0
1531048201772;-;-;-0.014370117;1.6860938;9.891431;0.001931522;0.023668818;0.013239977;-15.900001;44.100002;-40.2;17.19282;-10.284484;-0.62004095;1020.7922;-;-;51.52536432;-0.133432;0.0
1531048201783;-;-;-0.019160157;1.705254;9.829161;0.013116798;0.01940776;0.018033665;-15.900001;44.100002;-40.2;17.19282;-10.284484;-0.62004095;1020.7922;-;-;51.52536432;-0.133432;0.0
1531048201796;-;-;-0.07664063;1.7435743;9.73815;0.011518902;0.009820381;0.013239977;-16.050001;42.45;-40.050003;17.17803;-10.272243;-0.64648557;1020.7959;-;-;51.52536432;-0.133432;0.0
1531048201803;-;-;-0.1101709;1.705254;9.70941;0.0056599476;7.6563295E-4;0.01909893;-16.050001;42.45;-40.050003;17.17803;-10.272243;-0.64648557;1020.7959;-;-;51.52536432;-0.133432;0.0
1531048201813;-;-;-0.05748047;1.7962648;9.733359;-0.016177973;-2.996315E-4;0.027088413;-14.55;43.050003;-39.45;17.159124;-10.282095;-0.6747653;1020.7959;-;-;51.52536432;-0.133432;0.0
1531048201823;-;-;0.028740235;1.7723145;9.843531;-0.020971663;0.006091955;0.02602315;-14.55;43.050003;-39.45;17.159124;-10.282095;-0.6747653;1020.7959;-;-;51.52536432;-0.133432;0.0
1531048201833;-;-;0.033530276;1.8202149;9.992022;-0.010851652;0.031658303;0.015903138;-14.400001;41.850002;-38.4;17.139662;-10.293106;-0.67845887;1020.7959;-;-;51.52536432;-0.133432;0.0
1531048201846;-;-;0.081430666;1.705254;9.924961;3.336253E-4;0.037517257;0.013772608;-13.950001;42.600002;-41.100002;17.111912;-10.270886;-0.67719793;1020.7959;-;-;51.52536432;-0.133432;0.0
1531048201854;-;-;-0.023950197;1.6908839;9.83874;0.0035294187;0.043376215;0.0015220672;-13.950001;42.600002;-41.100002;17.111912;-10.270886;-0.67719793;1020.7959;-;-;51.52536432;-0.133432;0.0
1531048201864;-;-;-0.086220704;1.6765138;9.78605;-0.0017969036;0.040713053;-0.005934784;-13.950001;42.600002;-41.100002;17.111912;-10.270886;-0.67719793;1020.7959;-;-;51.52536432;-0.133432;0.0
1531048201874;-;-;-0.19639161;1.7531544;9.74294;-0.017243238;0.015679335;0.0015220672;-14.250001;42.600002;-39.9;17.08692;-10.265739;-0.71298844;1020.7959;-;-;51.52536432;-0.133432;0.0
1531048201885;-;-;-0.22513184;1.710044;9.867481;-0.011916916;0.0092877485;0.005783125;-14.250001;42.600002;-39.9;17.08692;-10.265739;-0.71298844;1020.7959;-;-;51.52536432;-0.133432;0.0
1531048201896;-;-;-0.16765137;1.7387843;9.982442;-0.010851652;0.0028961617;0.022294722;-15.900001;42.300003;-41.550003;17.076054;-10.264856;-0.7562628;1020.7994;-;-;51.52536432;-0.133432;0.0
1531048201905;-;-;-0.100590825;1.6860938;9.872271;-0.0060579614;0.003428794;0.0143052405;-15.900001;42.300003;-41.550003;17.076054;-10.264856;-0.7562628;1020.7994;-;-;51.52536432;-0.133432;0.0
1531048201916;-;-;-0.009580079;1.7818946;9.867481;3.336253E-4;0.01461407;0.013772608;-15.3;41.7;-39.45;17.067398;-10.248771;-0.77094144;1020.7994;-;-;51.52536432;-0.133432;0.0
1531048201930;-;-;-0.081430666;1.6813037;9.75252;0.0077904765;0.04231095;0.009511551;-13.650001;42.45;-39.300003;17.048822;-10.24104;-0.7701866;1020.7994;-;-;51.52536432;-0.133432;0.0
1531048201935;-;-;-0.06227051;1.6238233;9.7142;0.0056599476;0.036984626;9.89435E-4;-13.650001;42.45;-39.300003;17.048822;-10.24104;-0.7701866;1020.7994;-;-;51.52536432;-0.133432;0.0
1531048201947;-;-;-0.028740235;1.6477735;9.618399;-0.009253755;0.03112567;0.0036525961;-14.700001;42.9;-40.5;17.032356;-10.251729;-0.794078;1020.7994;-;-;51.52536432;-0.133432;0.0
1531048201955;-;-;-0.05748047;1.719624;9.690249;-0.027895883;0.018342497;0.0041852286;-14.700001;42.9;-40.5;17.032356;-10.251729;-0.794078;1020.7994;-;-;51.52536432;-0.133432;0.0
1531048201966;-;-;-0.12933107;1.6334034;9.81;-0.022036929;0.015679335;0.0047178604;-14.400001;42.15;-39.600002;17.018448;-10.251428;-0.8356258;1020.7994;-;-;51.52536432;-0.133432;0.0
1531048201982;-;-;-0.14370118;1.7579445;9.920172;-0.0065905936;-0.01894176;0.016435768;-14.400001;42.15;-39.600002;17.018448;-10.251428;-0.8356258;1020.7994;-;-;51.52536432;-0.133432;0.0
1531048201986;-;-;-0.100590825;1.7723145;9.920172;0.0056599476;-0.013615437;0.020164195;-14.85;43.050003;-40.65;17.009111;-10.224106;-0.8515555;1020.7994;-;-;51.52536432;-0.133432;0.0
1531048201998;-;-;-0.15328126;1.7292042;9.800421;0.010986269;-0.012017541;0.030816838;-14.85;43.050003;-40.65;17.009111;-10.224106;-0.8515555;1020.799;-;-;51.52536432;-0.133432;0.0
1531048202007;-;-;-0.1341211;1.710044;9.74773;0.0024641543;-0.010952276;0.030816838;-15.450001;42.45;-40.95;16.992727;-10.219777;-0.8348084;1020.799;-;-;51.52536432;-0.133432;0.0
1531048202017;-;-;-0.12454102;1.6813037;9.829161;0.00619258;0.013548806;0.03294737;-15.450001;42.45;-40.95;16.992727;-10.219777;-0.8348084;1020.799;-;-;51.52536432;-0.133432;0.0
1531048202032;-;-;-0.11496094;1.710044;9.83874;0.008855741;0.021005658;0.028686311;-13.650001;42.45;-41.25;16.968426;-10.227674;-0.8187597;1020.799;-;-;51.52536432;-0.133432;0.0
1531048202038;-;-;-0.086220704;1.6908839;9.718989;0.01577996;0.027397243;0.031882104;-13.650001;42.45;-41.25;16.968426;-10.227674;-0.8187597;1020.799;-;-;51.52536432;-0.133432;0.0
1531048202048;-;-;-0.033530276;1.7292042;9.833951;0.023769444;0.03272357;0.041469485;-13.950001;42.600002;-39.9;16.929045;-10.234448;-0.8218473;1020.799;-;-;51.52536432;-0.133432;0.0
1531048202058;-;-;-0.0047900393;1.6238233;9.79563;0.008855741;0.025799347;0.02389262;-13.950001;42.600002;-39.9;16.929045;-10.234448;-0.8218473;1020.799;-;-;51.52536432;-0.133432;0.0
1531048202068;-;-;0.028740235;1.6765138;9.905801;0.0051273154;-0.0018975282;0.02655578;-14.1;41.850002;-38.100002;16.887732;-10.251577;-0.845421;1020.799;-;-;51.52536432;-0.133432;0.0
1531048202081;-;-;0.009580079;1.6765138;9.915381;-0.0023295358;-0.01414807;0.018566297;-14.1;41.850002;-38.100002;16.887732;-10.251577;-0.845421;1020.799;-;-;51.52536432;-0.133432;0.0
1531048202089;-;-;0.06706055;1.6717237;9.881851;8.662575E-4;-0.022137552;0.014837873;-16.800001;43.2;-40.050003;16.851429;-10.262359;-0.85883224;1020.7927;-;-;51.52536432;-0.133432;0.0
1531048202099;-;-;0.023950197;1.7148341;9.958491;0.011518902;-0.017876495;0.014837873;-16.800001;43.2;-40.050003;16.851429;-10.262359;-0.85883224;1020.7927;-;-;51.52536432;-0.133432;0.0
1531048202109;-;-;-0.019160157;1.7244141;9.829161;0.023769444;-0.008821747;0.01909893;-15.3;42.300003;-39.45;16.832472;-10.26393;-0.8367805;1020.7927;-;-;51.52536432;-0.133432;0.0
1531048202120;-;-;-0.014370117;1.7339942;9.6615095;0.020041019;0.017277231;0.018566297;-15.3;42.300003;-39.45;16.832472;-10.26393;-0.8367805;1020.7927;-;-;51.52536432;-0.133432;0.0
1531048202132;-;-;0.023950197;1.719624;9.580078;0.01577996;0.03112567;0.010576815;-13.650001;42.9;-38.850002;16.817373;-10.279707;-0.81444633;1020.7927;-;-;51.52536432;-0.133432;0.0
1531048202140;-;-;0.05748047;1.7579445;9.666299;-0.0065905936;0.02633198;-0.0011410939;-13.650001;42.9;-38.850002;16.817373;-10.279707;-0.81444633;1020.7927;-;-;51.52536432;-0.133432;0.0
1531048202151;-;-;0.043110352;1.6669337;9.7621;-0.013514813;0.01195091;-0.005934784;-14.85;41.25;-41.550003;16.796331;-10.305301;-0.82690054;1020.7927;-;-;51.52536432;-0.133432;0.0
1531048202160;-;-;0.1101709;1.6765138;9.862691;-0.0023295358;0.0071572196;-0.008065313;-14.85;41.25;-41.550003;16.796331;-10.305301;-0.82690054;1020.7927;-;-;51.52536432;-0.133432;0.0
1531048202170;-;-;0.06227051;1.6142433;9.905801;0.016312592;0.0092877485;-0.013924267;-14.1;41.850002;-40.95;16.780357;-10.306576;-0.8555731;1020.7927;-;-;51.52536432;-0.133432;0.0
1531048202182;-;-;0.043110352;1.705254;9.829161;0.029095765;-8.3226373E-4;-0.013391635;-14.1;41.850002;-40.95;16.780357;-10.306576;-0.8555731;1020.7927;-;-;51.52536432;-0.133432;0.0
1531048202191;-;-;0.05748047;1.7579445;9.6615095;0.022170814;0.004489107;-0.016607212;-15.6;42.600002;-42.75;16.785318;-10.2997265;-0.86296844;1020.78107;-;-;51.52536432;-0.133432;0.0
1531048202200;-;-;-0.028740235;1.7723145;9.613608;0.016311858;0.011945959;-0.023531431;-15.6;42.600002;-42.75;16.785318;-10.2997265;-0.86296844;1020.78107;-;-;51.52536432;-0.133432;0.0
1531048202210;-;-;-0.033530276;1.7914747;9.685459;-0.00978712;0.023131235;-0.017139845;-15.3;42.300003;-39.9;16.799978;-10.324578;-0.86605483;1020.78107;-;-;51.52536432;-0.133432;0.0
1531048202220;-;-;-0.11496094;1.7675245;9.79563;-0.019907132;0.039642833;-0.007019832;-15.3;42.300003;-39.9;16.799978;-10.324578;-0.86605483;1020.78107;-;-;51.52536432;-0.133432;0.0
1531048202232;-;-;-0.119750984;1.7866846;9.77168;-0.023635559;0.038044937;-0.0011608775;-14.1;42.9;-40.050003;16.816538;-10.336488;-0.88430613;1020.78107;-;-;51.52536432;-0.133432;0.0
1531048202240;-;-;-0.18681154;1.7531544;9.85311;-0.025233455;0.039642833;0.0020349158;-14.1;42.9;-40.050003;16.816538;-10.336488;-0.88430613;1020.78107;-;-;51.52536432;-0.133432;0.0
1531048202250;-;-;-0.20597169;1.7435743;9.877061;-0.017776605;0.026327029;0.015883354;-13.05;41.100002;-41.7;16.824398;-10.316099;-0.9242475;1020.78107;-;-;51.52536432;-0.133432;0.0
1531048202261;-;-;-0.21076173;1.8154249;9.934542;-0.017776605;0.026327029;0.026003366;-13.05;41.100002;-41.7;16.824398;-10.316099;-0.9242475;1020.78107;-;-;51.52536432;-0.133432;0.0
1531048202270;-;-;-0.1580713;1.7579445;9.896221;-0.010319753;0.01727228;0.016415985;-13.650001;43.2;-40.050003;16.819351;-10.286952;-0.9708312;1020.78107;-;-;51.52536432;-0.133432;0.0
1531048202283;-;-;-0.12933107;1.7244141;9.848321;-0.0124502815;0.0028912106;0.028666528;-13.650001;43.2;-40.050003;16.819351;-10.286952;-0.9708312;1020.78107;-;-;51.52536432;-0.133432;0.0
1531048202291;-;-;-0.19160157;1.6908839;9.690249;-0.009254488;-0.008826698;0.021742309;-14.400001;42.9;-42.15;16.797424;-10.26803;-0.9954506;1020.7896;-;-;51.52536432;-0.133432;0.0
1531048202315;-;-;-0.16765137;1.8058448;9.833951;-0.010852385;0.030588085;0.014285456;-15.450001;42.15;-40.5;16.775633;-10.260293;-0.99494475;1020.7896;-;-;51.52536432;-0.133432;0.0
1531048202315;-;-;-0.16765137;1.8058448;9.833951;-0.010852385;0.030588085;0.014285456;-15.450001;42.15;-40.5;16.775633;-10.260293;-0.99494475;1020.7896;-;-;51.52536432;-0.133432;0.0
1531048202332;-;-;-0.14370118;1.7723145;9.992022;0.01418133;0.049230214;-0.002226142;-15.150001;42.9;-40.95;16.753756;-10.243674;-0.99495554;1020.7896;-;-;51.52536432;-0.133432;0.0
1531048202350;-;-;-0.1820215;1.7148341;9.857901;0.0285624;0.0391102;0.0041654445;-14.700001;40.800003;-40.5;16.737059;-10.229177;-1.028096;1020.7896;-;-;51.52536432;-0.133432;0.0
1531048202350;-;-;-0.1820215;1.7148341;9.857901;0.0285624;0.0391102;0.0041654445;-14.700001;40.800003;-40.5;16.737059;-10.229177;-1.028096;1020.7896;-;-;51.52536432;-0.133432;0.0
1531048202367;-;-;-0.21555176;1.705254;9.666299;0.007789743;0.015141752;-0.0054219356;-14.700001;41.850002;-40.95;16.726755;-10.249004;-1.0795714;1020.7896;-;-;51.52536432;-0.133432;0.0
1531048202366;-;-;-0.21555176;1.705254;9.666299;0.007789743;0.015141752;-0.0054219356;-14.700001;41.850002;-40.95;16.726755;-10.249004;-1.0795714;1020.7896;-;-;51.52536432;-0.133432;0.0
1531048202383;-;-;-0.244292;1.705254;9.848321;-0.0124502815;7.606817E-4;0.008426502;-14.700001;41.850002;-40.95;16.726755;-10.249004;-1.0795714;1020.7896;-;-;51.52536432;-0.133432;0.0
1531048202400;-;-;-0.06706055;1.6525636;9.82437;0.0024634209;0.0039564753;0.01961178;-16.35;42.0;-40.65;16.723503;-10.260846;-1.1038492;1020.7899;-;-;51.52536432;-0.133432;0.0
1531048202400;-;-;-0.06706055;1.6525636;9.82437;0.0024634209;0.0039564753;0.01961178;-16.35;42.0;-40.65;16.723503;-10.260846;-1.1038492;1020.7899;-;-;51.52536432;-0.133432;0.0
1531048202417;-;-;0.05748047;1.6621436;9.958491;0.011518169;-0.026936194;0.011089664;-15.750001;43.95;-40.5;16.715347;-10.255206;-1.1056627;1020.7899;-;-;51.52536432;-0.133432;0.0
1531048202417;-;-;0.086220704;1.6334034;9.972861;0.008855008;-0.017881446;0.01748125;-15.750001;43.95;-40.5;16.715347;-10.255206;-1.1056627;1020.7899;-;-;51.52536432;-0.133432;0.0
1531048202434;-;-;0.119750984;1.6621436;9.843531;0.0067244787;-0.025338298;-0.008085096;-15.6;42.0;-40.2;16.692556;-10.257339;-1.1009554;1020.7899;-;-;51.52536432;-0.133432;0.0
1531048202451;-;-;-0.023950197;1.705254;9.77168;-0.010852385;0.025794396;-0.04004303;-14.55;42.300003;-41.100002;16.68495;-10.271151;-1.0743005;1020.7899;-;-;51.52536432;-0.133432;0.0
1531048202451;-;-;-0.023950197;1.705254;9.77168;-0.010852385;0.025794396;-0.04004303;-14.55;42.300003;-41.100002;16.68495;-10.271151;-1.0743005;1020.7899;-;-;51.52536432;-0.133432;0.0
1531048202468;-;-;-0.20597169;1.8537452;9.877061;-0.004460798;0.06733971;-0.022466166;-14.85;41.7;-41.550003;16.705439;-10.269226;-1.0645366;1020.7899;-;-;51.52536432;-0.133432;0.0
1531048202469;-;-;-0.20597169;1.8537452;9.877061;-0.004460798;0.06733971;-0.022466166;-14.85;41.7;-41.550003;16.705439;-10.269226;-1.0645366;1020.7899;-;-;51.52536432;-0.133432;0.0
1531048202484;-;-;-0.18681154;1.7675245;9.77647;-0.0012650047;0.061480753;-0.019803006;-15.750001;40.050003;-40.95;16.705439;-10.269226;-1.0645366;1020.7899;-;-;51.52536432;-0.133432;0.0
1531048202501;-;-;-0.20597169;1.6860938;9.68067;-0.0023302692;0.008217533;0.0031001803;-15.750001;40.050003;-40.95;16.728226;-10.26052;-1.1229668;1020.78577;-;-;51.52536432;-0.133432;0.0
1531048202500;-;-;-0.20597169;1.6860938;9.68067;-0.0023302692;0.008217533;0.0031001803;-15.750001;40.050003;-40.95;16.728226;-10.26052;-1.1229668;1020.78577;-;-;51.52536432;-0.133432;0.0
1531048202518;-;-;-0.19639161;1.7435743;9.72857;-0.02896188;-0.015218285;-0.009150361;-14.700001;43.2;-41.7;16.728916;-10.261346;-1.1901083;1020.78577;-;-;51.52536432;-0.133432;0.0
1531048202517;-;-;-0.19639161;1.7435743;9.72857;-0.02896188;-0.015218285;-0.009150361;-14.700001;43.2;-41.7;16.728916;-10.261346;-1.1901083;1020.78577;-;-;51.52536432;-0.133432;0.0
1531048202534;-;-;-0.17244141;1.7387843;9.6758795;-0.019907132;0.014609119;0.014818089;-15.6;43.65;-43.5;16.724455;-10.248322;-1.1989856;1020.78577;-;-;51.52536432;-0.133432;0.0
1531048202551;-;-;-0.17244141;1.7292042;9.6758795;-0.007656591;0.033251245;0.018013882;-14.1;42.15;-40.5;16.721598;-10.218624;-1.1846496;1020.78577;-;-;51.52536432;-0.133432;0.0
1531048202551;-;-;-0.17244141;1.7292042;9.6758795;-0.007656591;0.033251245;0.018013882;-14.1;42.15;-40.5;16.721598;-10.218624;-1.1846496;1020.78577;-;-;51.52536432;-0.133432;0.0
1531048202569;-;-;-0.07664063;1.7627344;9.814791;-0.02416819;-0.013087756;0.013220193;-14.250001;42.300003;-41.100002;16.709759;-10.198668;-1.2063601;1020.78577;-;-;51.52536432;-0.133432;0.0
1531048202568;-;-;-0.07664063;1.7627344;9.814791;-0.02416819;-0.013087756;0.013220193;-14.250001;42.300003;-41.100002;16.709759;-10.198668;-1.2063601;1020.78577;-;-;51.52536432;-0.133432;0.0
1531048202585;-;-;-0.21076173;1.719624;10.049502;-0.022037663;-0.03279515;0.01748125;-12.900001;42.300003;-41.100002;16.696444;-10.175869;-1.2178748;1020.781;-;-;51.52536432;-0.133432;0.0
1531048202603;-;-;-0.009580079;1.7675245;10.102193;3.3289194E-4;-0.03545831;0.01748125;-14.55;42.600002;-41.550003;16.685863;-10.152301;-1.1782408;1020.781;-;-;51.52536432;-0.133432;0.0
1531048202604;-;-;-0.009580079;1.7675245;10.102193;3.3289194E-4;-0.03545831;0.01748125;-14.55;42.600002;-41.550003;16.685863;-10.152301;-1.1782408;1020.781;-;-;51.52536432;-0.133432;0.0
1531048202620;-;-;-0.081430666;1.839375;10.030342;0.026431872;0.0114133265;-0.0059545673;-14.55;42.600002;-41.550003;16.685863;-10.152301;-1.1782408;1020.781;-;-;51.52536432;-0.133432;0.0
1531048202620;-;-;-0.081430666;1.839375;10.030342;0.026431872;0.0114133265;-0.0059545673;-14.55;42.600002;-41.550003;16.685863;-10.152301;-1.1782408;1020.781;-;-;51.52536432;-0.133432;0.0
1531048202636;-;-;-0.033530276;1.7387843;9.843531;0.03814978;0.037512302;-0.01607458;-15.150001;42.15;-40.5;16.682995;-10.150382;-1.1343673;1020.781;-;-;51.52536432;-0.133432;0.0
1531048202653;-;-;-0.14849122;1.6525636;9.74294;0.024833973;0.0076849014;-0.017139845;-14.400001;41.4;-40.5;16.69036;-10.178276;-1.145639;1020.781;-;-;51.52536432;-0.133432;0.0
1531048202653;-;-;-0.14849122;1.6525636;9.74294;0.024833973;0.0076849014;-0.017139845;-14.400001;41.4;-40.5;16.69036;-10.178276;-1.145639;1020.781;-;-;51.52536432;-0.133432;0.0
1531048202670;-;-;-0.043110352;1.7435743;9.642349;0.016311858;-0.030131986;-0.0032914064;-14.700001;41.100002;-40.95;16.704231;-10.217608;-1.1855584;1020.781;-;-;51.52536432;-0.133432;0.0
1531048202688;-;-;-0.06706055;1.6908839;9.70941;0.018442389;-0.03279515;-0.0016935098;-13.500001;42.0;-40.65;16.719429;-10.238192;-1.1772894;1020.7724;-;-;51.52536432;-0.133432;0.0
1531048202688;-;-;-0.0047900393;1.7244141;9.618399;0.018442389;-0.03279515;-0.0016935098;-13.500001;42.0;-40.65;16.719429;-10.238192;-1.1772894;1020.7724;-;-;51.52536432;-0.133432;0.0
1531048202704;-;-;0.043110352;1.6860938;9.718989;0.007789197;-0.0082977535;-0.0049040355;-14.85;42.300003;-39.45;16.730955;-10.251795;-1.136057;1020.7724;-;-;51.52536432;-0.133432;0.0
1531048202705;-;-;0.043110352;1.6860938;9.718989;0.007789197;-0.0082977535;-0.0049040355;-14.85;42.300003;-39.45;16.730955;-10.251795;-1.136057;1020.7724;-;-;51.52536432;-0.133432;0.0
1531048202720;-;-;-0.14370118;1.6908839;9.623189;3.3234584E-4;0.025258077;-0.023546163;-14.85;42.300003;-39.45;16.730955;-10.251795;-1.136057;1020.7724;-;-;51.52536432;-0.133432;0.0
1531048202737;-;-;-0.1341211;1.6573536;9.642349;-0.02736453;0.03963915;-0.033133544;-14.700001;42.15;-42.15;16.742668;-10.261228;-1.1189487;1020.7724;-;-;51.52536432;-0.133432;0.0
1531048202738;-;-;-0.1341211;1.6573536;9.642349;-0.02736453;0.03963915;-0.033133544;-14.700001;42.15;-42.15;16.742668;-10.261228;-1.1189487;1020.7724;-;-;51.52536432;-0.133432;0.0
1531048202754;-;-;-0.1820215;1.6525636;9.814791;-0.023636105;0.022062283;-0.008099829;-15.750001;41.850002;-41.25;16.760471;-10.262867;-1.1487713;1020.7724;-;-;51.52536432;-0.133432;0.0
1531048202755;-;-;-0.1820215;1.6525636;9.814791;-0.023636105;0.022062283;-0.008099829;-15.750001;41.850002;-41.25;16.760471;-10.262867;-1.1487713;1020.7724;-;-;51.52536432;-0.133432;0.0
1531048202771;-;-;-0.12454102;1.719624;9.72378;-0.010852931;7.569946E-4;-0.0017082423;-14.55;42.0;-40.65;16.774534;-10.238932;-1.1973301;1020.7724;-;-;51.52536432;-0.133432;0.0
1531048202788;-;-;-0.06706055;1.6573536;9.642349;-0.0071245055;0.016735962;-0.012893519;-13.05;41.850002;-40.95;16.785318;-10.212866;-1.2194502;1020.76215;-;-;51.52536432;-0.133432;0.0
1531048202789;-;-;-0.038320314;1.6429834;9.69504;-0.011385563;0.011942272;-0.015024048;-13.05;41.850002;-40.95;16.785318;-10.212866;-1.2194502;1020.76215;-;-;51.52536432;-0.133432;0.0
1531048202805;-;-;-0.11496094;1.7627344;9.7812605;-0.01298346;0.008746478;-0.0049040355;-13.05;42.15;-39.600002;16.794422;-10.201196;-1.2298273;1020.76215;-;-;51.52536432;-0.133432;0.0
1531048202805;-;-;-0.11496094;1.7627344;9.7812605;-0.01298346;0.008746478;-0.0049040355;-13.05;42.15;-39.600002;16.794422;-10.201196;-1.2298273;1020.76215;-;-;51.52536432;-0.133432;0.0
1531048202821;-;-;-0.25387207;1.719624;9.843531;-0.014581356;0.0151380645;-0.012893519;-13.05;42.15;-39.600002;16.794422;-10.201196;-1.2298273;1020.76215;-;-;51.52536432;-0.133432;0.0
1531048202838;-;-;-0.22513184;1.7962648;9.910591;-0.010852931;0.014605432;-0.0059693;-16.050001;40.800003;-41.7;16.808;-10.18635;-1.2485659;1020.76215;-;-;51.52536432;-0.133432;0.0
1531048202838;-;-;-0.22513184;1.7962648;9.910591;-0.010852931;0.014605432;-0.0059693;-16.050001;40.800003;-41.7;16.808;-10.18635;-1.2485659;1020.76215;-;-;51.52536432;-0.133432;0.0
1531048202855;-;-;-0.10538086;1.7818946;9.901011;-0.011385563;0.030584397;-0.003306139;-15.450001;43.95;-41.7;16.818047;-10.162476;-1.2648973;1020.76215;-;-;51.52536432;-0.133432;0.0
1531048202855;-;-;-0.10538086;1.7818946;9.901011;-0.011385563;0.030584397;-0.003306139;-15.450001;43.95;-41.7;16.818047;-10.162476;-1.2648973;1020.76215;-;-;51.52536432;-0.133432;0.0
1531048202869;-;-;-0.07185059;1.8202149;9.82437;-0.025766633;0.019399121;0.0148033565;-14.85;42.0;-41.100002;16.8154;-10.150486;-1.2842185;1020.76215;-;-;51.52536432;-0.133432;0.0
1531048202887;-;-;-0.05748047;1.7914747;9.833951;-0.033223487;0.02632334;0.0020201833;-13.500001;41.7;-39.9;16.799908;-10.133093;-1.3079664;1020.7658;-;-;51.52536432;-0.133432;0.0
1531048202887;-;-;-0.05748047;1.7914747;9.833951;-0.033223487;0.02632334;0.0020201833;-13.500001;41.7;-39.9;16.799908;-10.133093;-1.3079664;1020.7658;-;-;51.52536432;-0.133432;0.0
1531048202903;-;-;-0.119750984;1.7435743;9.968072;-0.02257084;0.019399121;-0.0059693;-13.200001;42.300003;-41.100002;16.786985;-10.09467;-1.3298149;1020.7658;-;-;51.52536432;-0.133432;0.0
1531048202920;-;-;-0.086220704;1.6669337;9.968072;0.010984991;0.024192812;-0.014491416;-13.200001;42.300003;-41.100002;16.786985;-10.09467;-1.3298149;1020.7658;-;-;51.52536432;-0.133432;0.0
1531048202921;-;-;-0.086220704;1.6669337;9.968072;0.010984991;0.024192812;-0.014491416;-13.200001;42.300003;-41.100002;16.786985;-10.09467;-1.3298149;1020.7658;-;-;51.52536432;-0.133432;0.0
1531048202939;-;-;-0.1101709;1.6525636;9.81958;0.036018703;-0.022146191;-0.036861967;-14.700001;42.45;-41.25;16.789703;-10.071522;-1.3627323;1020.7658;-;-;51.52536432;-0.133432;0.0
1531048202938;-;-;-0.1101709;1.6525636;9.81958;0.036018703;-0.022146191;-0.036861967;-14.700001;42.45;-41.25;16.789703;-10.071522;-1.3627323;1020.7658;-;-;51.52536432;-0.133432;0.0
1531048202954;-;-;-0.1341211;1.7627344;9.599238;0.022170268;-0.042918846;-0.052308302;-14.85;43.350002;-40.2;16.80983;-10.09064;-1.3894758;1020.7658;-;-;51.52536432;-0.133432;0.0
1531048202954;-;-;-0.1341211;1.7627344;9.599238;0.022170268;-0.042918846;-0.052308302;-14.85;43.350002;-40.2;16.80983;-10.09064;-1.3894758;1020.7658;-;-;51.52536432;-0.133432;0.0
1531048202971;-;-;-0.16765137;1.7004639;9.642349;0.012050255;-0.02427672;-0.0539062;-15.450001;42.9;-40.95;16.859816;-10.12608;-1.3703022;1020.7658;-;-;51.52536432;-0.133432;0.0
1531048202988;-;-;-0.11496094;1.6621436;9.671089;-0.0049939766;-0.010428282;-0.048047245;-13.950001;42.600002;-39.9;16.921194;-10.143816;-1.3415654;1020.7642;-;-;51.52536432;-0.133432;0.0
1531048202988;-;-;-0.1101709;1.719624;9.704619;-7.329186E-4;-8.409021E-4;-0.040590394;-13.950001;42.600002;-39.9;16.921194;-10.143816;-1.3415654;1020.7642;-;-;51.52536432;-0.133432;0.0
1531048203006;-;-;-0.019160157;1.6381935;9.800421;-0.016711885;0.010344375;-0.050710406;-14.85;42.0;-40.65;16.921194;-10.143816;-1.3415654;1020.7642;-;-;51.52536432;-0.133432;0.0
1531048203006;-;-;-0.019160157;1.6381935;9.800421;-0.016711885;0.010344375;-0.050710406;-14.85;42.0;-40.65;16.921194;-10.143816;-1.3415654;1020.7642;-;-;51.52536432;-0.133432;0.0
1531048203022;-;-;0.086220704;1.5136524;10.106983;0.008854462;-0.011493546;-0.051243037;-13.950001;42.300003;-39.45;17.028044;-10.135592;-1.3570634;1020.7642;-;-;51.52536432;-0.133432;0.0
1531048203040;-;-;-0.033530276;1.5423926;9.80521;0.0376166;-0.030135674;-0.08000518;-13.950001;42.300003;-39.45;17.028044;-10.135592;-1.3570634;1020.7642;-;-;51.52536432;-0.133432;0.0
1531048203040;-;-;-0.033530276;1.5423926;9.80521;0.0376166;-0.030135674;-0.08000518;-13.950001;42.300003;-39.45;17.028044;-10.135592;-1.3570634;1020.7642;-;-;51.52536432;-0.133432;0.0
1531048203057;-;-;-0.11496094;1.5711329;9.5561285;0.021637635;-0.0035040632;-0.09332099;-14.85;41.7;-43.95;17.088764;-10.151225;-1.3606533;1020.7642;-;-;51.52536432;-0.133432;0.0
1531048203057;-;-;-0.11496094;1.5711329;9.5561285;0.021637635;-0.0035040632;-0.09332099;-14.85;41.7;-43.95;17.088764;-10.151225;-1.3606533;1020.7642;-;-;51.52536432;-0.133432;0.0
1531048203073;-;-;-0.23950197;1.5376027;9.79084;0.018974474;0.02152965;-0.09758204;-14.400001;42.15;-41.25;17.184923;-10.187056;-1.3459933;1020.7642;-;-;51.52536432;-0.133432;0.0
1531048203091;-;-;-0.06706055;1.5423926;9.704619;0.015246049;-0.0066998564;-0.1002452;-15.6;42.0;-40.65;17.287554;-10.210351;-1.370741;1020.7638;-;-;51.52536432;-0.133432;0.0
1531048203091;-;-;-0.06706055;1.5423926;9.704619;0.015246049;-0.0066998564;-0.1002452;-15.6;42.0;-40.65;17.287554;-10.210351;-1.370741;1020.7638;-;-;51.52536432;-0.133432;0.0
1531048203107;-;-;-0.038320314;1.585503;9.513018;-0.0033960799;-0.013091443;-0.109832585;-14.400001;42.9;-40.5;17.394417;-10.233806;-1.40609;1020.7638;-;-;51.52536432;-0.133432;0.0
1531048203124;-;-;-0.23950197;1.7818946;9.637559;-0.0017981831;0.003952788;-0.09651678;-13.500001;41.25;-39.9;17.394417;-10.233806;-1.40609;1020.7638;-;-;51.52536432;-0.133432;0.0
1531048203123;-;-;-0.23950197;1.7818946;9.637559;-0.0017981831;0.003952788;-0.09651678;-13.500001;41.25;-39.9;17.394417;-10.233806;-1.40609;1020.7638;-;-;51.52536432;-0.133432;0.0
1531048203140;-;-;-0.3879932;1.7914747;9.982442;0.008321829;0.006615949;-0.052308302;-13.500001;41.25;-39.9;17.514273;-10.242452;-1.4093782;1020.7638;-;-;51.52536432;-0.133432;0.0
1531048203140;-;-;-0.3879932;1.7914747;9.982442;0.008321829;0.006615949;-0.052308302;-13.500001;41.25;-39.9;17.514273;-10.242452;-1.4093782;1020.7638;-;-;51.52536432;-0.133432;0.0
1531048203157;-;-;-0.39757326;1.8729054;9.74773;0.0019302425;-0.046114642;-0.036861967;-15.750001;40.800003;-42.15;17.622461;-10.23039;-1.4361981;1020.7638;-;-;51.52536432;-0.133432;0.0
1531048203175;-;-;-0.5412744;2.4093897;9.445957;-0.061985627;-0.07540942;0.010542299;-15.3;40.65;-41.850002;17.68207;-10.241211;-1.464845;1020.76654;-;-;51.52536432;-0.133432;0.0
1531048203174;-;-;-0.5412744;2.4093897;9.445957;-0.061985627;-0.07540942;0.010542299;-15.3;40.65;-41.850002;17.68207;-10.241211;-1.464845;1020.76654;-;-;51.52536432;-0.133432;0.0
1531048203191;-;-;-0.5508545;1.839375;9.455538;-0.06997511;-0.022678824;0.04942445;-15.6;41.7;-40.2;17.72024;-10.215084;-1.3915014;1020.76654;-;-;51.52536432;-0.133432;0.0
1531048203191;-;-;-0.5508545;1.839375;9.455538;-0.06997511;-0.022678824;0.04942445;-15.6;41.7;-40.2;17.72024;-10.215084;-1.3915014;1020.76654;-;-;51.52536432;-0.133432;0.0
1531048203209;-;-;0.21555176;1.5807129;9.934542;-0.026832568;-0.027477045;-0.04167376;-14.700001;41.100002;-40.95;17.689787;-10.146453;-1.3324546;1020.76654;-;-;51.52536432;-0.133432;0.0
1531048203224;-;-;0.16286133;1.829795;9.8866415;-0.0033967507;-0.008834915;-0.09493698;-14.700001;41.100002;-40.95;17.689787;-10.146453;-1.3324546;1020.76654;-;-;51.52536432;-0.133432;0.0
1531048203223;-;-;0.16286133;1.829795;9.8866415;-0.0033967507;-0.008834915;-0.09493698;-14.700001;41.100002;-40.95;17.689787;-10.146453;-1.3324546;1020.76654;-;-;51.52536432;-0.133432;0.0
1531048203240;-;-;-0.13891114;2.0501368;10.116563;-0.0023314862;0.036971457;-0.08055591;-13.200001;41.25;-39.45;17.674196;-10.083859;-1.3185872;1020.76654;-;-;51.52536432;-0.133432;0.0
1531048203259;-;-;-0.14849122;1.8824854;10.039923;0.009919055;0.019927224;-0.06404431;-14.55;41.25;-41.100002;17.767134;-10.070687;-1.3237121;1020.76654;-;-;51.52536432;-0.133432;0.0
1531048203259;-;-;-0.15328126;1.8729054;10.130933;0.017375907;0.035906192;-0.068838;-14.55;41.25;-41.100002;17.767134;-10.070687;-1.3237121;1020.76654;-;-;51.52536432;-0.133432;0.0
1531048203275;-;-;-0.06227051;1.8633252;9.972861;0.028028551;0.006611419;-0.061381154;-15.900001;42.300003;-41.100002;17.852646;-10.070374;-1.3748436;1020.76605;-;-;51.52536432;-0.133432;0.0
1531048203275;-;-;-0.06227051;1.8633252;9.972861;0.028028551;0.006611419;-0.061381154;-15.900001;42.300003;-41.100002;17.852646;-10.070374;-1.3748436;1020.76605;-;-;51.52536432;-0.133432;0.0
1531048203292;-;-;-0.09101075;1.8824854;10.049502;0.027495919;-0.013628605;-0.05126114;-15.6;42.0;-39.9;17.924614;-10.089073;-1.4165008;1020.76605;-;-;51.52536432;-0.133432;0.0
1531048203293;-;-;-0.081430666;1.8872755;9.987232;0.025898023;-0.018954929;-0.052326404;-15.6;42.0;-39.9;17.924614;-10.089073;-1.4165008;1020.76605;-;-;51.52536432;-0.133432;0.0
1531048203308;-;-;-0.1341211;1.9782863;10.0063925;0.037083298;-0.018422296;-0.034216907;-14.85;41.7;-41.550003;17.99224;-10.114615;-1.4244998;1020.76605;-;-;51.52536432;-0.133432;0.0
1531048203325;-;-;-0.09580079;1.9591261;9.953702;0.030691713;-0.023215987;-0.018237941;-14.85;41.7;-41.550003;17.99224;-10.114615;-1.4244998;1020.76605;-;-;51.52536432;-0.133432;0.0
1531048203325;-;-;-0.09580079;1.9591261;9.953702;0.030691713;-0.023215987;-0.018237941;-14.85;41.7;-41.550003;17.99224;-10.114615;-1.4244998;1020.76605;-;-;51.52536432;-0.133432;0.0
1531048203342;-;-;-0.12454102;2.0932472;9.972861;0.023767494;7.5246475E-4;-0.004389504;-14.250001;41.7;-40.65;18.06791;-10.182968;-1.393309;1020.76605;-;-;51.52536432;-0.133432;0.0
1531048203358;-;-;-0.1580713;2.0357666;10.346485;0.043474883;0.013003006;0.017981049;-14.250001;41.7;-40.65;18.06791;-10.182968;-1.393309;1020.76605;-;-;51.52536432;-0.133432;0.0
1531048203358;-;-;-0.1580713;2.0357666;10.346485;0.043474883;0.013003006;0.017981049;-14.250001;41.7;-40.65;18.06791;-10.182968;-1.393309;1020.76605;-;-;51.52536432;-0.133432;0.0
1531048203376;-;-;-0.038320314;1.6765138;10.471025;0.093542315;-0.015226502;0.011589463;-15.3;41.7;-41.100002;18.069527;-10.2070875;-1.3926338;1020.7619;-;-;51.52536432;-0.133432;0.0
1531048203376;-;-;-0.038320314;1.6765138;10.471025;0.093542315;-0.015226502;0.011589463;-15.3;41.7;-41.100002;18.069527;-10.2070875;-1.3926338;1020.7619;-;-;51.52536432;-0.133432;0.0
1531048203392;-;-;0.12454102;1.6238233;10.011182;0.1281634;-0.06529393;-0.036347438;-14.55;40.65;-41.850002;18.05311;-10.261464;-1.4051398;1020.7619;-;-;51.52536432;-0.133432;0.0
1531048203408;-;-;0.21555176;1.6190332;9.7142;0.1180434;-0.061032873;-0.09546961;-14.250001;40.65;-41.850002;18.07018;-10.386839;-1.3644606;1020.7619;-;-;51.52536432;-0.133432;0.0
1531048203408;-;-;0.21555176;1.6190332;9.7142;0.1180434;-0.061032873;-0.09546961;-14.250001;40.65;-41.850002;18.07018;-10.386839;-1.3644606;1020.7619;-;-;51.52536432;-0.133432;0.0
1531048203425;-;-;0.14849122;1.6621436;9.77647;0.11697814;-0.021618089;-0.12582965;-14.700001;40.5;-39.600002;18.166254;-10.52509;-1.3052841;1020.7619;-;-;51.52536432;-0.133432;0.0
1531048203425;-;-;0.14849122;1.6621436;9.77647;0.11697814;-0.021618089;-0.12582965;-14.700001;40.5;-39.600002;18.166254;-10.52509;-1.3052841;1020.7619;-;-;51.52536432;-0.133432;0.0
1531048203442;-;-;0.10538086;1.590293;9.584868;0.12496762;-0.006171754;-0.12476438;-14.1;41.4;-40.050003;18.166254;-10.52509;-1.3052841;1020.7619;-;-;51.52536432;-0.133432;0.0
1531048203459;-;-;0.28261232;1.4944923;9.254355;0.060519114;-0.030672837;-0.11251384;-14.1;41.4;-40.050003;18.30941;-10.653203;-1.2962093;1020.7619;-;-;51.52536432;-0.133432;0.0
1531048203460;-;-;0.28261232;1.4944923;9.254355;0.060519114;-0.030672837;-0.11251384;-14.1;41.4;-40.050003;18.30941;-10.653203;-1.2962093;1020.7619;-;-;51.52536432;-0.133432;0.0
1531048203477;-;-;0.24908204;1.5950831;9.584868;-0.014582028;-0.0168244;-0.12263385;-15.6;41.25;-40.65;18.44403;-10.785499;-1.3183067;1020.7642;-;-;51.52536432;-0.133432;0.0
1531048203477;-;-;0.2682422;1.5998731;9.513018;-0.009255705;-0.017889664;-0.12316649;-15.6;41.25;-40.65;18.44403;-10.785499;-1.3183067;1020.7642;-;-;51.52536432;-0.133432;0.0
1531048203494;-;-;0.2682422;1.5184424;9.70941;-0.0049946476;0.031645134;-0.12902544;-16.800001;41.850002;-42.15;18.579153;-10.842931;-1.3157513;1020.7642;-;-;51.52536432;-0.133432;0.0
1531048203510;-;-;0.24908204;1.5663428;9.575289;-0.010853603;0.08863678;-0.14180861;-16.35;42.300003;-40.65;18.716349;-10.827941;-1.3332717;1020.7642;-;-;51.52536432;-0.133432;0.0
1531048203510;-;-;0.24908204;1.5663428;9.575289;-0.010853603;0.08863678;-0.14180861;-16.35;42.300003;-40.65;18.716349;-10.827941;-1.3332717;1020.7642;-;-;51.52536432;-0.133432;0.0
1531048203526;-;-;-0.014370117;1.4944923;9.699829;-0.023636775;0.114203125;-0.13754755;-14.700001;39.45;-40.95;18.85012;-10.82052;-1.4125043;1020.7642;-;-;51.52536432;-0.133432;0.0
1531048203543;-;-;-0.05748047;1.5711329;9.7142;-0.03695258;0.085440986;-0.15299389;-13.950001;39.600002;-40.65;18.990433;-10.793186;-1.554971;1020.7642;-;-;51.52536432;-0.133432;0.0
1531048203542;-;-;-0.05748047;1.5711329;9.7142;-0.03695258;0.085440986;-0.15299389;-13.950001;39.600002;-40.65;18.990433;-10.793186;-1.554971;1020.7642;-;-;51.52536432;-0.133432;0.0
1531048203559;-;-;-0.23471193;1.7771046;9.78605;-0.02949573;0.090234675;-0.13754755;-13.950001;39.600002;-40.65;18.990433;-10.793186;-1.554971;1020.7642;-;-;51.52536432;-0.133432;0.0
1531048203560;-;-;-0.23471193;1.7771046;9.78605;-0.02949573;0.090234675;-0.13754755;-13.950001;39.600002;-40.65;18.990433;-10.793186;-1.554971;1020.7642;-;-;51.52536432;-0.133432;0.0
1531048203576;-;-;-0.3784131;1.6381935;9.920172;-0.05026839;0.03963462;-0.15086336;-14.400001;40.5;-39.300003;19.135658;-10.752389;-1.6923848;1020.76117;-;-;51.52536432;-0.133432;0.0
1531048203594;-;-;-0.32572266;1.9112257;10.130933;-0.059323136;0.07372308;-0.13062334;-16.050001;41.850002;-40.5;19.27648;-10.710064;-1.8098882;1020.76117;-;-;51.52536432;-0.133432;0.0
1531048203594;-;-;-0.45026368;1.8968556;10.207574;-0.061986297;0.053483058;-0.12955807;-16.050001;41.850002;-40.5;19.27648;-10.710064;-1.8098882;1020.76117;-;-;51.52536432;-0.133432;0.0
1531048203610;-;-;-0.39757326;2.1411476;10.265054;-0.060921032;0.094495736;-0.12476438;-14.400001;39.75;-40.050003;19.43286;-10.641584;-1.8891796;1020.76117;-;-;51.52536432;-0.133432;0.0
1531048203611;-;-;-0.39757326;2.1411476;10.265054;-0.060921032;0.094495736;-0.12476438;-14.400001;39.75;-40.050003;19.43286;-10.641584;-1.8891796;1020.76117;-;-;51.52536432;-0.133432;0.0
1531048203627;-;-;0.081430666;1.695674;10.950029;-0.040148374;0.18238007;-0.06564221;-13.05;40.5;-40.050003;19.567865;-10.565057;-1.9983703;1020.76117;-;-;51.52536432;-0.133432;0.0
1531048203644;-;-;0.05748047;1.4034815;10.370435;0.04027909;0.122192614;-0.15192863;-14.55;41.25;-41.100002;19.63445;-10.497914;-2.2033186;1020.76117;-;-;51.52536432;-0.133432;0.0
1531048203643;-;-;0.05748047;1.4034815;10.370435;0.04027909;0.122192614;-0.15192863;-14.55;41.25;-41.100002;19.63445;-10.497914;-2.2033186;1020.76117;-;-;51.52536432;-0.133432;0.0
1531048203661;-;-;-0.14370118;1.719624;9.72378;0.052529633;0.095561;-0.19081078;-13.500001;40.2;-41.100002;19.762362;-10.534476;-2.3705804;1020.76117;-;-;51.52536432;-0.133432;0.0
1531048203660;-;-;-0.14370118;1.719624;9.72378;0.052529633;0.095561;-0.19081078;-14.55;41.25;-41.100002;19.63445;-10.497914;-2.2033186;1020.76117;-;-;51.52536432;-0.133432;0.0
1531048203677;-;-;-0.364043;1.9064356;9.570498;0.034420136;0.14243264;-0.17589708;-13.500001;40.2;-41.100002;19.762362;-10.534476;-2.3705804;1020.76404;-;-;51.52536432;-0.133432;0.0
1531048203694;-;-;-0.5508545;2.2417383;9.498648;0.013647044;0.18397501;-0.12956986;-14.55;43.350002;-41.100002;19.949064;-10.587265;-2.5165107;1020.76404;-;-;51.52536432;-0.133432;0.0
1531048203694;-;-;-0.5508545;2.2417383;9.498648;0.013647044;0.18397501;-0.12956986;-14.55;43.350002;-41.100002;19.949064;-10.587265;-2.5165107;1020.76404;-;-;51.52536432;-0.133432;0.0
1531048203710;-;-;-0.57001466;2.2944288;9.910591;0.028028114;0.32725307;-0.008662348;-13.650001;38.7;-41.25;20.10071;-10.620432;-2.7210789;1020.76404;-;-;51.52536432;-0.133432;0.0
1531048203727;-;-;-0.5029541;1.9830762;9.78605;0.04187655;0.31500253;0.02382822;-14.1;38.7;-40.5;20.148462;-10.633675;-3.0234172;1020.76404;-;-;51.52536432;-0.133432;0.0
1531048203727;-;-;-0.5029541;1.9830762;9.78605;0.04187655;0.31500253;0.02382822;-14.1;38.7;-40.5;20.148462;-10.633675;-3.0234172;1020.76404;-;-;51.52536432;-0.133432;0.0
1531048203744;-;-;-0.19639161;1.839375;9.75731;0.0067228246;0.2830446;0.025426116;-13.650001;38.4;-40.95;20.073437;-10.680614;-3.3815625;1020.76404;-;-;51.52536432;-0.133432;0.0
1531048203744;-;-;-0.17723145;1.8441651;9.75252;-0.004462452;0.27345723;0.02169769;-13.650001;38.4;-40.95;20.073437;-10.680614;-3.3815625;1020.76404;-;-;51.52536432;-0.133432;0.0
1531048203761;-;-;-0.12454102;1.9399658;9.584868;-0.062519364;0.22498769;0.02382822;-14.400001;39.75;-41.7;19.98105;-10.697346;-3.7018092;1020.76404;-;-;51.52536432;-0.133432;0.0
1531048203778;-;-;-0.09580079;2.0309765;9.733359;-0.10885837;0.28677303;0.047796667;-14.400001;39.75;-41.7;19.98105;-10.697346;-3.7018092;1020.7663;-;-;51.52536432;-0.133432;0.0
1531048203778;-;-;-0.09580079;2.0309765;9.733359;-0.10885837;0.28677303;0.047796667;-14.400001;39.75;-41.7;19.98105;-10.697346;-3.7018092;1020.7663;-;-;51.52536432;-0.133432;0.0
1531048203794;-;-;0.06227051;1.8824854;9.968072;-0.08702045;0.3379057;0.05259036;-14.55;41.25;-41.100002;19.904146;-10.628422;-3.9480953;1020.7663;-;-;51.52536432;-0.133432;0.0
1531048203794;-;-;0.06227051;1.8824854;9.968072;-0.08702045;0.3379057;0.05259036;-14.55;41.25;-41.100002;19.904146;-10.628422;-3.9480953;1020.7663;-;-;51.52536432;-0.133432;0.0
1531048203811;-;-;-0.12933107;1.5998731;9.992022;-0.04281197;0.38957104;0.024893483;-14.250001;40.95;-41.850002;19.797586;-10.513175;-4.2523475;1020.7663;-;-;51.52536432;-0.133432;0.0
1531048203828;-;-;-0.46942386;1.7483643;10.035132;-0.050801456;0.31926358;0.0025229293;-12.900001;40.2;-42.300003;19.680809;-10.441115;-4.6420608;1020.7663;-;-;51.52536432;-0.133432;0.0
1531048203828;-;-;-0.48379397;1.829795;10.039923;-0.060388837;0.31393728;0.008914516;-12.900001;40.2;-42.300003;19.680809;-10.441115;-4.6420608;1020.7663;-;-;51.52536432;-0.133432;0.0
1531048203845;-;-;-0.2682422;1.8202149;10.111773;-0.0912815;0.2798488;-0.0070644505;-12.6;40.800003;-41.7;19.59166;-10.395287;-5.0471134;1020.7663;-;-;51.52536432;-0.133432;0.0
1531048203845;-;-;-0.2682422;1.8202149;10.111773;-0.0912815;0.2798488;-0.0070644505;-12.6;40.800003;-41.7;19.59166;-10.395287;-5.0471134;1020.7663;-;-;51.52536432;-0.133432;0.0
1531048203862;-;-;-0.13891114;1.6525636;10.480606;-0.071574114;0.25588036;-0.04008765;-12.450001;39.600002;-40.65;19.52642;-10.310978;-5.3745418;1020.7663;-;-;51.52536432;-0.133432;0.0
1531048203878;-;-;0.033530276;1.4753321;10.030342;-0.07104148;0.17012657;-0.12371091;-12.450001;39.600002;-40.65;19.52642;-10.310978;-5.3745418;1020.7704;-;-;51.52536432;-0.133432;0.0
1531048203878;-;-;0.033530276;1.4753321;10.030342;-0.07104148;0.17012657;-0.12371091;-12.450001;39.600002;-40.65;19.52642;-10.310978;-5.3745418;1020.7704;-;-;51.52536432;-0.133432;0.0
1531048203895;-;-;-0.44547364;1.6669337;9.489068;-0.14134893;0.14828865;-0.22437839;-12.3;40.5;-40.95;19.521566;-10.223651;-5.671168;1020.7704;-;-;51.52536432;-0.133432;0.0
1531048203912;-;-;-0.6993457;2.2800586;9.80521;-0.19141637;0.2782509;-0.22704156;-14.700001;39.75;-41.25;19.641178;-10.11823;-5.863259;1020.7704;-;-;51.52536432;-0.133432;0.0
1531048203912;-;-;-0.6993457;2.2800586;9.80521;-0.19141637;0.2782509;-0.22704156;-14.700001;39.75;-41.25;19.641178;-10.11823;-5.863259;1020.7704;-;-;51.52536432;-0.133432;0.0
1531048203929;-;-;-0.7185059;1.3603711;9.81958;-0.0928794;-0.016294716;-0.08003506;-12.150001;41.7;-43.050003;19.856901;-9.911006;-6.14138;1020.7704;-;-;51.52536432;-0.133432;0.0
1531048203929;-;-;-0.7185059;1.3603711;9.81958;-0.0928794;-0.016294716;-0.08003506;-12.150001;41.7;-43.050003;19.856901;-9.911006;-6.14138;1020.7704;-;-;51.52536432;-0.133432;0.0
1531048203946;-;-;-1.1927198;1.6381935;8.957374;-0.21591745;-0.36090776;-0.1700499;-13.35;40.800003;-41.25;20.013622;-9.718094;-6.3470836;1020.7704;-;-;51.52536432;-0.133432;0.0
1531048203963;-;-;-0.89573735;1.7244141;10.9644;-0.37304392;-0.15690961;-0.22597629;-12.150001;40.2;-40.65;20.202593;-9.50756;-6.1305165;1020.7704;-;-;51.52536432;-0.133432;0.0
1531048203963;-;-;-0.89573735;1.7244141;10.9644;-0.37304392;-0.15690961;-0.22597629;-12.150001;40.2;-40.65;20.202593;-9.50756;-6.1305165;1020.7704;-;-;51.52536432;-0.133432;0.0
1531048203979;-;-;-0.67539555;1.5280225;11.208692;-0.23083115;-0.32628667;-0.2179868;-12.150001;40.2;-40.65;20.202593;-9.50756;-6.1305165;1020.77136;-;-;51.52536432;-0.133432;0.0
1531048203979;-;-;-0.67539555;1.5280225;11.208692;-0.23083115;-0.32628667;-0.2179868;-12.150001;40.2;-40.65;20.202593;-9.50756;-6.1305165;1020.77136;-;-;51.52536432;-0.133432;0.0
1531048203996;-;-;-0.43110353;1.4130616;10.653048;-0.108325735;-0.26450133;-0.24568368;-11.85;40.2;-40.65;20.49077;-9.08083;-5.953758;1020.77136;-;-;51.52536432;-0.133432;0.0
1531048204013;-;-;-0.22513184;1.3028907;10.375225;-0.019908786;-0.13666959;-0.40014702;-13.05;41.4;-42.45;20.79802;-8.7994175;-5.6279902;1020.77136;-;-;51.52536432;-0.133432;0.0
1531048204012;-;-;-0.22513184;1.3028907;10.375225;-0.019908786;-0.13666959;-0.40014702;-13.05;41.4;-42.45;20.79802;-8.7994175;-5.6279902;1020.77136;-;-;51.52536432;-0.133432;0.0
1531048204029;-;-;-0.56522465;1.3124708;9.924961;0.08342186;-0.110570624;-0.5072061;-13.650001;41.100002;-40.95;21.152454;-8.660521;-5.397466;1020.77136;-;-;51.52536432;-0.133432;0.0
1531048204029;-;-;-0.56522465;1.3124708;9.924961;0.08342186;-0.110570624;-0.5072061;-13.650001;41.100002;-40.95;21.152454;-8.660521;-5.397466;1020.77136;-;-;51.52536432;-0.133432;0.0
1531048204047;-;-;-0.6706055;1.6573536;9.618399;0.08928082;0.021522172;-0.54555565;-12.900001;40.65;-41.850002;21.693104;-8.64206;-5.3328795;1020.77136;-;-;51.52536432;-0.133432;0.0
1531048204046;-;-;-0.6706055;1.6573536;9.618399;0.08928082;0.021522172;-0.54555565;-12.900001;40.65;-41.850002;21.693104;-8.64206;-5.3328795;1020.77136;-;-;51.52536432;-0.133432;0.0
1531048204063;-;-;-0.6706055;1.7435743;9.608819;0.03868076;0.050816946;-0.59402514;-11.25;41.100002;-40.95;22.302956;-8.691045;-5.387406;1020.77136;-;-;51.52536432;-0.133432;0.0
1531048204079;-;-;-0.76161623;1.5471827;9.570498;-0.06624779;0.052947473;-0.6318421;-12.3;39.75;-41.25;22.959208;-8.684072;-5.5441732;1020.77344;-;-;51.52536432;-0.133432;0.0
1531048204080;-;-;-0.76161623;1.5471827;9.570498;-0.06624779;0.052947473;-0.6318421;-12.3;39.75;-41.25;22.959208;-8.684072;-5.5441732;1020.77344;-;-;51.52536432;-0.133432;0.0
1531048204097;-;-;-1.0346485;1.4322218;10.705738;-0.017245626;0.10887385;-0.6835074;-12.3;39.75;-41.25;22.959208;-8.684072;-5.5441732;1020.77344;-;-;51.52536432;-0.133432;0.0
1531048204113;-;-;-1.1687696;1.5184424;10.667418;0.18195882;0.12005913;-0.67977893;-12.450001;39.600002;-41.550003;23.675362;-8.539524;-5.73725;1020.77344;-;-;51.52536432;-0.133432;0.0
1531048204113;-;-;-1.1687696;1.5184424;10.667418;0.18195882;0.12005913;-0.67977893;-12.450001;39.600002;-41.550003;23.675362;-8.539524;-5.73725;1020.77344;-;-;51.52536432;-0.133432;0.0
1531048204130;-;-;-1.1927198;1.6142433;10.207574;0.3199106;0.16426761;-0.65634316;-12.900001;41.7;-43.050003;24.43332;-8.484006;-5.981403;1020.77344;-;-;51.52536432;-0.133432;0.0
1531048204129;-;-;-1.1927198;1.6142433;10.207574;0.3199106;0.16426761;-0.65634316;-12.900001;41.7;-43.050003;24.43332;-8.484006;-5.981403;1020.77344;-;-;51.52536432;-0.133432;0.0
1531048204146;-;-;-1.092129;1.6813037;9.632769;0.3742391;0.12165703;-0.63343996;-13.35;39.45;-41.25;25.176346;-8.675557;-6.2527785;1020.77344;-;-;51.52536432;-0.133432;0.0
1531048204147;-;-;-1.092129;1.6813037;9.632769;0.3742391;0.12165703;-0.63343996;-13.35;39.45;-41.25;25.176346;-8.675557;-6.2527785;1020.77344;-;-;51.52536432;-0.133432;0.0
1531048204157;-;-;-0.9627979;1.6765138;9.388477;0.34334642;0.08170961;-0.62012416;-13.35;39.45;-41.25;25.176346;-8.675557;-6.2527785;1020.77344;-;-;51.52536432;-0.133432;0.0
1531048204167;-;-;-0.8861573;1.8250049;9.158555;0.27676737;0.04921905;-0.6137326;-12.6;39.45;-43.350002;25.884733;-9.008251;-6.5325813;1020.77686;-;-;51.52536432;-0.133432;0.0
1531048204178;-;-;-0.9627979;1.8776954;9.081915;0.21764518;0.050816946;-0.63024414;-12.6;39.45;-43.350002;25.884733;-9.008251;-6.5325813;1020.77686;-;-;51.52536432;-0.133432;0.0
1531048204188;-;-;-1.1400293;1.8537452;9.417217;0.14680511;0.07318749;-0.6179936;-13.35;38.7;-42.15;26.577711;-9.303518;-6.731116;1020.77686;-;-;51.52536432;-0.133432;0.0
1531048204198;-;-;-1.2597803;1.8585353;9.872271;0.11857454;0.07903929;-0.5897927;-13.35;38.7;-42.15;26.577711;-9.303518;-6.731116;1020.77686;-;-;51.52536432;-0.133432;0.0
1531048204208;-;-;-1.2645704;1.7627344;10.485396;0.16438091;0.058799263;-0.54771477;-11.85;39.300003;-40.65;27.274977;-9.444976;-6.9171557;1020.77686;-;-;51.52536432;-0.133432;0.0
1531048204218;-;-;-1.2022998;1.5519727;10.480606;0.22297046;0.03855924;-0.5413232;-11.85;39.300003;-40.65;27.274977;-9.444976;-6.9171557;1020.77686;-;-;51.52536432;-0.133432;0.0
1531048204229;-;-;-1.1735597;1.5519727;10.327325;0.31777897;-0.024823995;-0.5530411;-12.450001;38.25;-41.100002;27.919876;-9.518016;-7.1115;1020.77686;-;-;51.52536432;-0.133432;0.0
1531048204238;-;-;-1.22146;1.5711329;10.011182;0.3545306;-0.06317352;-0.54878;-12.450001;38.25;-41.100002;27.919876;-9.518016;-7.1115;1020.77686;-;-;51.52536432;-0.133432;0.0
1531048204248;-;-;-1.0538087;1.7579445;9.74294;0.34547585;-0.088739865;-0.5482474;-11.25;37.050003;-41.7;28.53549;-9.723956;-7.23398;1020.77686;-;-;51.52536432;-0.133432;0.0
1531048204258;-;-;-1.0202783;1.9160157;9.666299;0.33855164;-0.094598815;-0.5514432;-11.25;37.050003;-41.7;28.53549;-9.723956;-7.23398;1020.77686;-;-;51.52536432;-0.133432;0.0
1531048204268;-;-;-0.9388477;2.0070264;9.623189;0.31351793;-0.11696937;-0.54931265;-11.700001;38.100002;-40.95;29.176466;-10.046199;-7.266544;1020.7732;-;-;51.52536432;-0.133432;0.0
1531048204278;-;-;-1.0442286;2.0261867;9.704619;0.30765897;-0.11696937;-0.5461169;-11.700001;38.100002;-40.95;29.176466;-10.046199;-7.266544;1020.7732;-;-;51.52536432;-0.133432;0.0
1531048204289;-;-;-1.092129;2.0118165;9.948912;0.35293272;-0.0860767;-0.54558426;-10.950001;37.050003;-43.350002;29.820202;-10.345109;-7.2631392;1020.7732;-;-;51.52536432;-0.133432;0.0
1531048204298;-;-;-1.1975098;2.064507;9.929751;0.38968435;-0.0844788;-0.534399;-10.950001;37.050003;-43.350002;29.820202;-10.345109;-7.2631392;1020.7732;-;-;51.52536432;-0.133432;0.0
1531048204308;-;-;-1.5376027;2.203418;9.474698;0.43602335;-0.073826164;-0.5029737;-12.150001;37.5;-41.100002;30.458471;-10.628751;-7.260826;1020.7732;-;-;51.52536432;-0.133432;0.0
1531048204318;-;-;-3.0129347;2.7255323;9.211246;0.4253707;-0.06743457;-0.4305357;-12.150001;37.5;-41.100002;30.458471;-10.628751;-7.260826;1020.7732;-;-;51.52536432;-0.133432;0.0
1531048204329;-;-;-1.829795;2.6345215;9.134604;0.38702118;-0.079685114;-0.28406185;-12.0;36.600002;-41.7;31.06746;-11.010644;-7.2848225;1020.7732;-;-;51.52536432;-0.133432;0.0
1531048204340;-;-;-1.4226416;2.6057813;8.899893;0.3545306;-0.1025883;-0.25636497;-12.0;36.600002;-40.95;31.459887;-11.8117695;-7.814115;1020.7732;-;-;51.52536432;-0.133432;0.0
1531048204350;-;-;-1.2406201;2.1411476;9.244776;0.2634505;-0.14466624;-0.25316918;-12.0;36.600002;-40.95;31.459887;-11.8117695;-7.814115;1020.7732;-;-;51.52536432;-0.133432;0.0
1531048204360;-;-;-1.0825489;2.0405567;9.369317;0.2485368;-0.15425363;-0.2648871;-11.25;34.2;-38.850002;31.459887;-11.8117695;-7.814115;1020.7732;-;-;51.52536432;-0.133432;0.0
1531048204370;-;-;-0.9532178;2.0405567;9.527389;0.24427573;-0.23734425;-0.2702134;-11.25;34.2;-38.850002;31.7623;-12.145199;-7.7551417;1020.7685;-;-;51.52536432;-0.133432;0.0
1531048204380;-;-;-0.732876;1.9255958;9.508228;0.2368189;-0.25492114;-0.286725;-10.8;35.4;-41.850002;32.08056;-12.3819895;-7.617337;1020.7685;-;-;51.52536432;-0.133432;0.0
1531048204391;-;-;-0.46463382;1.8872755;9.685459;0.2320252;-0.32469594;-0.33040085;-10.8;35.4;-41.850002;32.08056;-12.3819895;-7.617337;1020.7685;-;-;51.52536432;-0.133432;0.0
1531048204401;-;-;-0.39278322;1.9830762;9.594449;0.22297046;-0.31404328;-0.37247878;-11.700001;34.2;-39.600002;32.452175;-12.60231;-7.387856;1020.7685;-;-;51.52536432;-0.133432;0.0
1531048204412;-;-;-0.32572266;1.949546;9.623189;0.24427573;-0.24267058;-0.42680728;-11.700001;34.2;-39.600002;32.452175;-12.60231;-7.387856;1020.7685;-;-;51.52536432;-0.133432;0.0
1531048204421;-;-;-0.37362307;1.8489552;9.522598;0.27250525;-0.20538633;-0.44438416;-10.950001;35.7;-40.5;32.91757;-12.793306;-7.1070037;1020.7685;-;-;51.52536432;-0.133432;0.0
1531048204431;-;-;-0.60354495;1.7866846;9.211246;0.3412148;-0.087674595;-0.48539683;-10.950001;35.7;-40.5;32.91757;-12.793306;-7.1070037;1020.7685;-;-;51.52536432;-0.133432;0.0
1531048204450;-;-;-0.76161623;1.7387843;8.990904;0.3231053;0.035896078;-0.5397253;-10.5;35.100002;-41.100002;33.449627;-13.048925;-7.0036054;1020.7685;-;-;51.52536432;-0.133432;0.0
1531048204461;-;-;-0.7041358;1.5950831;9.158555;0.2980716;0.022580273;-0.5514432;-13.200001;33.45;-40.2;33.987026;-13.37298;-7.1259565;1020.7685;-;-;51.52536432;-0.133432;0.0
1531048204471;-;-;-0.7568262;1.6142433;9.402847;0.20273043;-0.14839467;-0.60151064;-13.200001;33.45;-40.2;33.987026;-13.37298;-7.1259565;1020.76715;-;-;51.52536432;-0.133432;0.0
1531048204482;-;-;-0.7951465;1.6573536;9.718989;0.1393472;-0.24107268;-0.6190875;-12.900001;34.5;-40.65;34.59819;-13.610136;-7.2521663;1020.76715;-;-;51.52536432;-0.133432;0.0
1531048204491;-;-;-0.732876;1.6334034;9.83874;0.09354082;-0.31670648;-0.6297401;-12.900001;34.5;-40.65;34.59819;-13.610136;-7.2521663;1020.76715;-;-;51.52536432;-0.133432;0.0
1531048204501;-;-;-0.6945557;1.7387843;9.901011;0.091410294;-0.34972966;-0.6382623;-13.650001;33.9;-42.45;35.3229;-13.674968;-7.1562595;1020.76715;-;-;51.52536432;-0.133432;0.0
1531048204512;-;-;-0.68976563;1.7627344;9.867481;0.113248214;-0.29859698;-0.6489149;-13.650001;33.9;-42.45;35.3229;-13.674968;-7.1562595;1020.76715;-;-;51.52536432;-0.133432;0.0
1531048204522;-;-;-0.7711963;1.6621436;9.7812605;0.13242297;-0.26610637;-0.6537086;-12.0;34.2;-42.45;36.102642;-13.6716585;-6.9525847;1020.76715;-;-;51.52536432;-0.133432;0.0
1531048204532;-;-;-0.86220706;1.8729054;9.503438;0.17822935;-0.16277574;-0.65157807;-12.0;34.2;-42.45;36.102642;-13.6716585;-6.9525847;1020.76715;-;-;51.52536432;-0.133432;0.0
1531048204542;-;-;-0.85741705;1.9303858;9.230406;0.18249041;-0.09353355;-0.647317;-10.950001;32.25;-40.95;36.87098;-13.728241;-6.8418536;1020.76715;-;-;51.52536432;-0.133432;0.0
1531048204552;-;-;-0.8669971;2.0213966;8.866363;0.14573878;0.01938448;-0.63772964;-10.950001;32.25;-40.95;36.87098;-13.728241;-6.8418536;1020.76715;-;-;51.52536432;-0.133432;0.0
1531048204562;-;-;-0.79993653;2.1363575;8.636441;0.1031282;0.07690876;-0.64358854;-11.1;32.7;-42.300003;37.58337;-13.841918;-6.9004145;1020.7629;-;-;51.52536432;-0.133432;0.0
1531048204573;-;-;-0.9963282;2.1603076;8.59333;0.049864974;0.22391525;-0.6345338;-11.1;32.7;-42.300003;37.58337;-13.841918;-6.9004145;1020.7629;-;-;51.52536432;-0.133432;0.0
1531048204583;-;-;-1.0442286;2.083667;8.732242;0.024831258;0.27291745;-0.6158917;-10.5;33.0;-40.65;38.234875;-13.884206;-7.1634088;1020.7629;-;-;51.52536432;-0.133432;0.0
1531048204593;-;-;-1.1256592;1.954336;8.880733;0.010450189;0.28783113;-0.6164243;-10.5;33.0;-40.65;38.234875;-13.884206;-7.1634088;1020.7629;-;-;51.52536432;-0.133432;0.0
1531048204603;-;-;-1.1783496;1.954336;9.048384;-0.024170905;0.2936901;-0.6004454;-11.700001;31.500002;-40.050003;38.822277;-13.844325;-7.618295;1020.7629;-;-;51.52536432;-0.133432;0.0
1531048204614;-;-;-1.0346485;1.9782863;9.177715;-0.035888817;0.25321;-0.59884745;-11.700001;31.500002;-40.050003;38.822277;-13.844325;-7.618295;1020.7629;-;-;51.52536432;-0.133432;0.0
1531048204623;-;-;-0.97237796;2.1363575;11.074571;-0.022040378;-0.007247132;-0.6004454;-9.6;32.25;-40.050003;39.384624;-13.751771;-8.104154;1020.7629;-;-;51.52536432;-0.133432;0.0
1531048204633;-;-;-1.331631;2.0261867;10.504556;0.035483904;-0.15744942;-0.59724957;-9.6;32.25;-40.050003;39.384624;-13.751771;-8.104154;1020.7629;-;-;51.52536432;-0.133432;0.0
1531048204643;-;-;-1.1639795;1.8489552;9.939331;-0.007126674;-0.07009774;-0.59884745;-11.1;31.050001;-41.100002;39.997505;-13.626996;-8.364887;1020.7629;-;-;51.52536432;-0.133432;0.0
1531048204654;-;-;-0.9867481;2.1076174;10.039923;-0.018844584;-0.1521231;-0.61695695;-11.1;31.050001;-41.100002;39.997505;-13.626996;-8.364887;1020.7629;-;-;51.52536432;-0.133432;0.0
1531048204664;-;-;-1.1735597;2.184258;10.068663;0.005123867;-0.23840952;-0.6441212;-9.450001;31.050001;-42.300003;40.659645;-13.532974;-8.410749;1020.7631;-;-;51.52536432;-0.133432;0.0
1531048204674;-;-;-1.585503;2.203418;9.460327;0.04879971;-0.24054004;-0.67288333;-9.450001;31.050001;-42.300003;40.659645;-13.532974;-8.410749;1020.7631;-;-;51.52536432;-0.133432;0.0
1531048204684;-;-;-1.8968556;2.3471193;9.148975;0.061582882;-0.14519888;-0.64465386;-10.05;32.7;-40.65;41.39841;-13.420462;-8.339249;1020.7631;-;-;51.52536432;-0.133432;0.0
1531048204694;-;-;-1.695674;2.4860303;8.962164;0.06371279;-0.04666613;-0.60419065;-10.05;32.7;-40.65;41.39841;-13.420462;-8.339249;1020.7631;-;-;51.52536432;-0.133432;0.0
1531048204704;-;-;-1.6765138;2.4045997;9.048384;0.04720119;0.04334872;-0.61111486;-10.650001;30.45;-41.7;42.140472;-13.371119;-8.294955;1020.7631;-;-;51.52536432;-0.133432;0.0
1531048204715;-;-;-1.8345851;2.2800586;9.374106;0.051462248;0.051870834;-0.5962012;-10.650001;30.45;-41.7;42.140472;-13.371119;-8.294955;1020.7631;-;-;51.52536432;-0.133432;0.0
1531048204725;-;-;-1.7914747;2.2800586;9.201666;0.0408096;0.087024555;-0.5940706;-9.450001;32.7;-40.2;42.782936;-13.335526;-8.453469;1020.7631;-;-;51.52536432;-0.133432;0.0
1531048204735;-;-;-1.6669337;2.1028273;9.177715;0.007786404;0.110993005;-0.58608115;-9.450001;32.7;-40.2;42.782936;-13.335526;-8.453469;1020.7631;-;-;51.52536432;-0.133432;0.0
1531048204745;-;-;-1.6765138;2.1555176;9.263936;-0.011388356;0.0662519;-0.5802222;-9.0;31.35;-41.850002;43.387985;-13.286214;-8.6809845;1020.7631;-;-;51.52536432;-0.133432;0.0
1531048204756;-;-;-1.695674;2.1411476;9.307046;-0.025236795;0.00606446;-0.58235276;-9.0;31.35;-41.850002;43.387985;-13.286214;-8.6809845;1020.7593;-;-;51.52536432;-0.133432;0.0
1531048204766;-;-;-1.8824854;2.078877;9.287886;-0.06944527;-0.059981935;-0.5599822;-10.5;30.000002;-40.2;43.97411;-13.183049;-8.927897;1020.7593;-;-;51.52536432;-0.133432;0.0
1531048204776;-;-;-1.7914747;1.9399658;9.374106;-0.10353373;-0.14467046;-0.5450685;-10.5;30.000002;-40.2;43.97411;-13.183049;-8.927897;1020.7593;-;-;51.52536432;-0.133432;0.0
1531048204787;-;-;-1.9830762;1.9208057;8.899893;-0.29102027;-0.48448983;-0.335744;-7.9500003;30.300001;-41.100002;44.568825;-13.02738;-9.043916;1020.7593;-;-;51.52536432;-0.133432;0.0
1531048204797;-;-;-1.4849122;1.575923;9.2256155;-0.41512358;-0.5361551;-0.28993762;-7.9500003;30.300001;-41.100002;44.568825;-13.02738;-9.043916;1020.7593;-;-;51.52536432;-0.133432;0.0
1531048204807;-;-;-1.6813037;1.7914747;10.317744;-0.45453838;-0.6352247;-0.39326826;-9.450001;28.95;-40.65;45.11798;-12.742335;-8.870882;1020.7593;-;-;51.52536432;-0.133432;0.0
1531048204817;-;-;-2.0453467;1.9734962;10.595567;-0.4071341;-0.6309637;-0.44972727;-9.450001;28.95;-40.65;45.11798;-12.742335;-8.870882;1020.7593;-;-;51.52536432;-0.133432;0.0
1531048204827;-;-;-2.5339308;2.0405567;10.97877;-0.28569394;-0.57343936;-0.4348136;-10.200001;31.2;-41.7;45.580807;-12.1698475;-8.301385;1020.7593;-;-;51.52536432;-0.133432;0.0
1531048204838;-;-;-2.1315675;1.949546;11.01709;-0.15999274;-0.46478245;-0.39646405;-7.8;31.2;-41.25;46.1804;-11.662818;-7.7152514;1020.7593;-;-;51.52536432;-0.133432;0.0
1531048204848;-;-;-1.3939015;1.6573536;11.01709;0.09460546;-0.25226218;-0.39007246;-7.8;31.2;-41.25;46.1804;-11.662818;-7.7152514;1020.7593;-;-;51.52536432;-0.133432;0.0
1531048204858;-;-;-1.2022998;1.5184424;10.815908;0.26025409;-0.078091435;-0.40977985;-11.400001;31.650002;-39.45;46.1804;-11.662818;-7.7152514;1020.7628;-;-;51.52536432;-0.133432;0.0
1531048204868;-;-;-1.1543995;1.3891114;10.044712;0.57077867;0.19940996;-0.484881;-11.400001;31.650002;-39.45;46.652298;-11.523452;-7.371565;1020.7628;-;-;51.52536432;-0.133432;0.0
1531048204878;-;-;-1.1304493;1.4753321;9.68067;0.6725114;0.34854698;-0.5274916;-9.900001;30.45;-40.95;47.0879;-11.883413;-7.4859853;1020.7628;-;-;51.52536432;-0.133432;0.0
1531048204889;-;-;-1.331631;1.590293;9.359736;0.78223366;0.58716625;-0.6031254;-9.900001;30.45;-40.95;47.0879;-11.883413;-7.4859853;1020.7628;-;-;51.52536432;-0.133432;0.0
1531048204899;-;-;-1.4082716;1.7292042;9.249566;0.83336633;0.68197477;-0.65212756;-9.900001;30.150002;-40.050003;47.54539;-12.60472;-8.057284;1020.7628;-;-;51.52536432;-0.133432;0.0
1531048204909;-;-;-1.8489552;1.9399658;8.981323;0.8509432;0.81513286;-0.71710867;-9.900001;30.150002;-40.050003;47.54539;-12.60472;-8.057284;1020.7628;-;-;51.52536432;-0.133432;0.0
1531048204919;-;-;-1.9687061;2.0022364;8.871153;0.84774745;0.8572108;-0.7490666;-9.6;28.800001;-40.050003;48.0535;-13.47116;-9.016487;1020.7628;-;-;51.52536432;-0.133432;0.0
1531048204929;-;-;-2.1315675;2.0213966;8.53106;0.7433515;0.699019;-0.79114455;-9.6;28.800001;-40.050003;48.0535;-13.47116;-9.016487;1020.7628;-;-;51.52536432;-0.133432;0.0
1531048204940;-;-;-2.2369483;2.078877;8.123906;0.5516039;0.47371554;-0.7879488;-9.3;28.800001;-42.15;48.621944;-14.317779;-10.145649;1020.7628;-;-;51.52536432;-0.133432;0.0
1531048204949;-;-;-2.2273684;2.1363575;8.267608;0.23681827;0.18609415;-0.794873;-9.3;28.800001;-42.15;48.621944;-14.317779;-10.145649;1020.7628;-;-;51.52536432;-0.133432;0.0
1531048204959;-;-;-2.3614893;2.2417383;8.377779;0.09620336;0.04334872;-0.79753613;-7.3500004;26.550001;-40.65;49.329628;-14.732891;-10.838883;1020.7589;-;-;51.52536432;-0.133432;0.0
1531048204969;-;-;-2.3614893;2.2608986;9.043594;-0.034824174;-0.104723044;-0.79593825;-7.3500004;26.550001;-40.65;49.329628;-14.732891;-10.838883;1020.7589;-;-;51.52536432;-0.133432;0.0
1531048204979;-;-;-2.2896388;2.1459377;9.354947;-0.05080314;-0.17130208;-0.7954056;-7.8;27.45;-39.600002;50.159843;-14.644968;-11.087078;1020.7589;-;-;51.52536432;-0.133432;0.0
1531048204989;-;-;-2.3471193;2.2225783;9.905801;-0.012986253;-0.27516535;-0.78049195;-7.8;27.45;-39.600002;50.159843;-14.644968;-11.087078;1020.7589;-;-;51.52536432;-0.133432;0.0
1531048205000;-;-;-2.4668703;2.203418;10.054293;0.022167474;-0.32523277;-0.74800134;-7.65;26.85;-39.9;51.046284;-14.4174595;-11.09959;1020.7589;-;-;51.52536432;-0.133432;0.0
1531048205010;-;-;-2.4093897;2.327959;9.944121;0.06637595;-0.34973386;-0.71178234;-7.65;26.85;-39.9;51.046284;-14.4174595;-11.09959;1020.7589;-;-;51.52536432;-0.133432;0.0
1531048205020;-;-;-2.3902297;2.4141798;9.910591;0.11058442;-0.3598539;-0.7043255;-7.05;27.6;-40.2;51.91411;-14.272183;-10.943868;1020.7589;-;-;51.52536432;-0.133432;0.0
1531048205030;-;-;-2.1555176;2.3662794;9.608819;0.1697066;-0.41524765;-0.67662865;-7.05;27.6;-40.2;51.91411;-14.272183;-10.943868;1020.7589;-;-;51.52536432;-0.133432;0.0
1531048205040;-;-;-2.0453467;2.5099807;9.268726;0.14733605;-0.4642498;-0.6643781;-6.6000004;26.550001;-38.25;52.740746;-14.241728;-10.73156;1020.7589;-;-;51.52536432;-0.133432;0.0
1531048205051;-;-;-2.0357666;2.7015822;9.086704;0.08661597;-0.40246445;-0.6393444;-6.6000004;26.550001;-38.25;52.740746;-14.241728;-10.73156;1020.7564;-;-;51.52536432;-0.133432;0.0
1531048205061;-;-;-2.193838;2.672842;9.134604;0.043472763;-0.33748332;-0.6057885;-7.2000003;26.7;-41.7;53.536236;-14.240684;-10.432986;1020.7564;-;-;51.52536432;-0.133432;0.0
1531048205071;-;-;-2.198628;2.5339308;9.168135;-0.07051053;-0.35133177;-0.46091256;-7.2000003;26.7;-41.7;53.536236;-14.240684;-10.432986;1020.7564;-;-;51.52536432;-0.133432;0.0
1531048205081;-;-;-2.083667;2.3998096;9.292676;-0.103001095;-0.3454728;-0.40019247;-7.2000003;25.95;-39.600002;54.20899;-14.1311245;-10.211506;1020.7564;-;-;51.52536432;-0.133432;0.0
1531048205091;-;-;-2.1315675;2.083667;9.220825;-0.12430639;-0.29487276;-0.31923237;-7.2000003;25.95;-39.600002;54.20899;-14.1311245;-10.211506;1020.7564;-;-;51.52536432;-0.133432;0.0
1531048205101;-;-;-2.1363575;2.0549269;9.441168;-0.09234846;-0.18994421;-0.15251851;-7.65;26.250002;-39.45;54.68633;-13.917047;-9.944972;1020.7564;-;-;51.52536432;-0.133432;0.0
1531048205111;-;-;-1.4130616;2.5770411;9.560919;-0.029497853;-0.14253993;-0.16423641;-7.65;26.250002;-39.45;54.68633;-13.917047;-9.944972;1020.7564;-;-;51.52536432;-0.133432;0.0
1531048205122;-;-;-1.1352394;2.5004005;9.570498;0.020036945;-0.106853575;-0.25638178;-6.4500003;26.7;-40.050003;54.90363;-13.740302;-9.785911;1020.7564;-;-;51.52536432;-0.133432;0.0
1531048205132;-;-;-1.6046631;2.43813;9.671089;0.07756123;-0.121767275;-0.38794193;-6.4500003;26.7;-40.050003;54.90363;-13.740302;-9.785911;1020.7564;-;-;51.52536432;-0.133432;0.0
1531048205142;-;-;-2.1076174;2.2752686;9.72378;0.107921265;-0.1947379;-0.3890072;-6.6000004;26.85;-42.300003;55.155518;-13.705895;-9.727699;1020.7564;-;-;51.52536432;-0.133432;0.0
1531048205152;-;-;-2.3135889;2.1411476;9.85311;0.14094447;-0.29806855;-0.32988504;-6.6000004;26.85;-42.300003;55.155518;-13.705895;-9.727699;1020.7551;-;-;51.52536432;-0.133432;0.0
1531048205162;-;-;-2.2273684;2.2800586;9.699829;0.1595866;-0.35772336;-0.27608916;-7.8;25.650002;-40.95;55.561893;-13.7423935;-9.629654;1020.7551;-;-;51.52536432;-0.133432;0.0
1531048205172;-;-;-2.069297;2.44292;9.383687;0.1579887;-0.38542023;-0.26543653;-7.8;25.650002;-40.95;55.561893;-13.7423935;-9.629654;1020.7551;-;-;51.52536432;-0.133432;0.0
1531048205183;-;-;-1.8968556;2.5147705;9.134604;0.12922655;-0.36145177;-0.2931334;-7.65;26.550001;-41.100002;55.908604;-13.846764;-9.326829;1020.7551;-;-;51.52536432;-0.133432;0.0
1531048205192;-;-;-1.8920655;2.5866213;9.086704;0.10206145;-0.32843438;-0.30434182;-7.65;26.550001;-41.100002;55.908604;-13.846764;-9.326829;1020.7551;-;-;51.52536432;-0.133432;0.0
1531048205202;-;-;-1.9734962;2.4716604;9.067544;0.036015052;-0.29328063;-0.29688498;-7.3500004;25.2;-40.2;56.251736;-13.940713;-8.995825;1020.7551;-;-;51.52536432;-0.133432;0.0
1531048205212;-;-;-1.7866846;2.3375392;9.254355;-0.031096606;-0.23735426;-0.2920913;-7.3500004;25.2;-40.2;56.251736;-13.940713;-8.995825;1020.7551;-;-;51.52536432;-0.133432;0.0
1531048205222;-;-;-1.5136524;2.2225783;9.340576;-0.07210929;-0.16225313;-0.30966815;-7.9500003;26.85;-38.7;56.59515;-13.93171;-8.750579;1020.7551;-;-;51.52536432;-0.133432;0.0
1531048205233;-;-;-1.585503;2.2656887;9.608819;-0.084359825;-0.1207078;-0.3400282;-7.9500003;26.85;-38.7;56.59515;-13.93171;-8.750579;1020.7551;-;-;51.52536432;-0.133432;0.0
1531048205242;-;-;-1.8441651;2.2465284;9.814791;-0.05772822;-0.15479627;-0.34961557;-7.3500004;24.150002;-38.7;56.911823;-13.797049;-8.634635;1020.7551;-;-;51.52536432;-0.133432;0.0
1531048205253;-;-;-1.7339942;2.2656887;9.857901;-0.0044649956;-0.13828467;-0.3480177;-7.3500004;24.150002;-38.7;56.911823;-13.797049;-8.634635;1020.7578;-;-;51.52536432;-0.133432;0.0
1531048205263;-;-;-1.7148341;2.308799;9.896221;0.03548242;-0.1255015;-0.35920295;-7.9500003;26.550001;-39.9;57.252026;-13.65528;-8.571364;1020.7578;-;-;51.52536432;-0.133432;0.0
1531048205273;-;-;-1.710044;2.44292;9.73815;0.110583566;-0.16278575;-0.37358403;-7.9500003;26.550001;-39.9;57.252026;-13.65528;-8.571364;1020.7578;-;-;51.52536432;-0.133432;0.0
1531048205283;-;-;-1.7339942;2.43813;9.474698;0.13029096;-0.2229732;-0.36186612;-7.65;24.750002;-39.9;57.606632;-13.625541;-8.522864;1020.7578;-;-;51.52536432;-0.133432;0.0
1531048205293;-;-;-1.8441651;2.5770411;9.445957;0.115377255;-0.26345325;-0.34056082;-7.65;24.750002;-39.9;57.606632;-13.625541;-8.522864;1020.7578;-;-;51.52536432;-0.133432;0.0
1531048205303;-;-;-1.9687061;2.6249416;9.417217;0.079690896;-0.29061747;-0.3288429;-7.2000003;24.6;-39.600002;57.99229;-13.694084;-8.397827;1020.7578;-;-;51.52536432;-0.133432;0.0
1531048205314;-;-;-1.7962648;2.668052;9.354947;0.044537168;-0.3060638;-0.34109345;-7.2000003;24.6;-39.600002;57.99229;-13.694084;-8.397827;1020.7578;-;-;51.52536432;-0.133432;0.0
1531048205324;-;-;-1.6334034;2.692002;9.3309965;8.613269E-4;-0.33802176;-0.36612716;-6.4500003;24.6;-39.600002;58.35885;-13.74295;-8.18105;1020.7578;-;-;51.52536432;-0.133432;0.0
1531048205334;-;-;-1.5232325;2.7303224;9.350157;-0.04601031;-0.31991225;-0.38263878;-6.4500003;24.6;-39.600002;58.35885;-13.74295;-8.18105;1020.7578;-;-;51.52536432;-0.133432;0.0
1531048205344;-;-;-1.5184424;2.6105714;9.374106;-0.10459985;-0.31991225;-0.39595458;-7.5000005;25.650002;-39.600002;58.754276;-13.698338;-7.9195056;1020.7578;-;-;51.52536432;-0.133432;0.0
1531048205355;-;-;-1.341211;2.2944288;9.465117;-0.18662523;-0.44880924;-0.4540115;-7.5000005;25.650002;-39.600002;58.754276;-13.698338;-7.9195056;1020.75037;-;-;51.52536432;-0.133432;0.0
1531048205365;-;-;-1.1783496;2.088457;9.671089;-0.272379;-0.6586664;-0.5514832;-7.8;25.050001;-39.600002;59.19474;-13.53648;-7.6613374;1020.75037;-;-;51.52536432;-0.133432;0.0
1531048205375;-;-;-1.3795313;2.208208;9.996812;-0.31658748;-0.8370982;-0.65641177;-7.8;25.050001;-39.600002;59.19474;-13.53648;-7.6613374;1020.75037;-;-;51.52536432;-0.133432;0.0
1531048205385;-;-;-1.5950831;2.543511;10.260264;-0.29954326;-0.9729194;-0.73470867;-8.400001;23.85;-39.9;59.834816;-13.17337;-7.1492786;1020.75037;-;-;51.52536432;-0.133432;0.0
1531048205395;-;-;-1.7244141;2.7255323;10.150093;-0.23509476;-0.9979531;-0.72565395;-8.400001;23.85;-39.9;59.834816;-13.17337;-7.1492786;1020.75037;-;-;51.52536432;-0.133432;0.0
1531048205405;-;-;-2.0549269;3.0368848;9.992022;-0.09501247;-0.9185909;-0.5871695;-8.55;25.650002;-39.300003;60.765034;-12.699211;-6.3093805;1020.75037;-;-;51.52536432;-0.133432;0.0
1531048205415;-;-;-2.0405567;3.1278956;9.704619;-0.023107123;-0.81153184;-0.43749988;-8.55;25.650002;-39.300003;60.765034;-12.699211;-6.3093805;1020.75037;-;-;51.52536432;-0.133432;0.0
1531048205425;-;-;-1.4609619;3.032095;8.952583;3.2869464E-4;-0.504203;-0.08756053;-7.05;25.800001;-38.25;61.66356;-12.408252;-5.403795;1020.75037;-;-;51.52536432;-0.133432;0.0
1531048205436;-;-;-0.9053174;2.811753;8.655601;-0.06039138;-0.32364067;0.07116388;-7.05;25.800001;-38.25;61.66356;-12.408252;-5.403795;1020.75037;-;-;51.52536432;-0.133432;0.0
1531048205448;-;-;-0.3161426;2.2369483;8.923843;-0.22497474;-0.21125528;0.20325667;-8.25;24.300001;-38.4;61.98944;-12.738455;-5.0325713;1020.7531;-;-;51.52536432;-0.133432;0.0
1531048205457;-;-;-0.2203418;1.9591261;9.273516;-0.28303164;-0.24161533;0.21177877;-9.6;25.050001;-36.75;61.804283;-12.596661;-4.7119365;1020.7531;-;-;51.52536432;-0.133432;0.0
1531048205468;-;-;-0.17244141;1.7004639;9.412427;-0.3762423;-0.29967222;0.17502715;-9.6;25.050001;-36.75;61.804283;-12.596661;-4.7119365;1020.7531;-;-;51.52536432;-0.133432;0.0
1531048205478;-;-;-0.16765137;1.5998731;9.560919;-0.39222127;-0.29061747;0.15585239;-10.8;25.500002;-38.7;61.55873;-12.238974;-4.3609414;1020.7531;-;-;51.52536432;-0.133432;0.0
1531048205488;-;-;-0.13891114;1.5519727;10.020762;-0.37038335;-0.31139013;0.11004603;-10.8;25.500002;-38.7;61.55873;-12.238974;-4.3609414;1020.7531;-;-;51.52536432;-0.133432;0.0
1531048205498;-;-;-0.21555176;1.5998731;10.2315235;-0.34694752;-0.3124554;0.055184904;-8.85;26.400002;-39.300003;61.385967;-11.801236;-3.9838233;1020.7531;-;-;51.52536432;-0.133432;0.0
1531048205509;-;-;-0.5460645;1.8489552;10.150093;-0.33256644;-0.30233538;0.014704859;-8.85;26.400002;-39.300003;61.385967;-11.801236;-3.9838233;1020.7531;-;-;51.52536432;-0.133432;0.0
1531048205519;-;-;-1.092129;1.9830762;9.848321;-0.3117938;-0.1915479;0.06903335;-9.450001;26.250002;-40.65;61.319275;-11.404703;-3.6307278;1020.7531;-;-;51.52536432;-0.133432;0.0
1531048205529;-;-;-1.7818946;1.6334034;9.915381;-0.29634747;0.11205248;0.42270115;-9.450001;26.250002;-40.65;61.319275;-11.404703;-3.6307278;1020.7531;-;-;51.52536432;-0.133432;0.0
1531048205539;-;-;0.33530274;2.3614893;9.766891;-0.26119372;0.110987216;0.41311377;-10.8;26.250002;-39.45;61.10802;-10.788392;-3.9376526;1020.7531;-;-;51.52536432;-0.133432;0.0
1531048205550;-;-;0.5891748;2.4572902;8.832832;-0.32883802;0.018841838;0.15958081;-10.8;26.250002;-39.45;61.10802;-10.788392;-3.9376526;1020.7493;-;-;51.52536432;-0.133432;0.0
1531048205560;-;-;-0.2203418;1.9160157;8.947793;-0.427375;-0.114848845;-0.0044699013;-9.450001;26.250002;-38.7;60.586697;-10.647481;-3.7550445;1020.7493;-;-;51.52536432;-0.133432;0.0
1531048205570;-;-;-0.8861573;1.7292042;9.034014;-0.51792246;-0.19740684;-0.025242558;-9.450001;26.250002;-38.7;60.586697;-10.647481;-3.7550445;1020.7493;-;-;51.52536432;-0.133432;0.0
1531048205581;-;-;-0.75203615;1.710044;9.259146;-0.58237094;-0.2575943;0.0056501105;-9.6;25.95;-39.600002;60.481956;-10.176604;-3.6316643;1020.7493;-;-;51.52536432;-0.133432;0.0
1531048205590;-;-;0.05748047;1.7771046;9.474698;-0.5951541;-0.30127013;-0.026840454;-9.6;25.95;-39.600002;60.481956;-10.176604;-3.6316643;1020.7493;-;-;51.52536432;-0.133432;0.0
1531048205600;-;-;0.4742139;1.5615528;9.599238;-0.56426144;-0.2810301;-0.097147904;-9.75;26.250002;-37.5;60.44304;-9.523539;-3.3519022;1020.7493;-;-;51.52536432;-0.133432;0.0
1531048205611;-;-;0.488584;1.4034815;9.843531;-0.50354135;-0.2032658;-0.15520483;-9.75;26.250002;-37.5;60.44304;-9.523539;-3.3519022;1020.7493;-;-;51.52536432;-0.133432;0.0
1531048205621;-;-;0.37362307;1.2549903;9.833951;-0.41459182;-0.11538148;-0.1978154;-10.05;27.6;-39.9;60.503265;-8.87756;-3.0044916;1020.7493;-;-;51.52536432;-0.133432;0.0
1531048205631;-;-;0.11496094;1.590293;9.929751;-0.3267075;0.0049934015;-0.24415441;-10.05;27.6;-39.9;60.503265;-8.87756;-3.0044916;1020.7493;-;-;51.52536432;-0.133432;0.0
1531048205642;-;-;0.16286133;1.7387843;10.724898;-0.12377461;0.19194731;-0.34269136;-10.650001;28.050001;-38.4;60.64711;-8.381372;-2.8884976;1020.7493;-;-;51.52536432;-0.133432;0.0
1531048205653;-;-;0.09101075;1.6908839;11.0123005;0.11484463;0.3767707;-0.4145967;-10.650001;28.050001;-38.4;60.64711;-8.381372;-2.8884976;1020.7511;-;-;51.52536432;-0.133432;0.0
1531048205663;-;-;-0.33530274;1.465752;10.91171;0.36305124;0.5999436;-0.5014158;-11.25;28.800001;-39.300003;60.888935;-8.164659;-3.1047056;1020.7511;-;-;51.52536432;-0.133432;0.0
1531048205674;-;-;-0.4742139;1.6381935;10.490186;0.5116556;0.77517956;-0.60368115;-11.25;28.800001;-39.300003;60.888935;-8.164659;-3.1047056;1020.7511;-;-;51.52536432;-0.133432;0.0
1531048205684;-;-;-0.5843848;1.8106349;10.039923;0.4930135;0.6388257;-0.647357;-9.75;26.550001;-37.800003;61.25446;-8.456391;-3.778034;1020.7511;-;-;51.52536432;-0.133432;0.0
1531048205695;-;-;-0.40715334;1.7244141;9.589659;0.41045532;0.4486749;-0.6462964;-9.75;26.550001;-37.800003;61.25446;-8.456391;-3.778034;1020.7511;-;-;51.52536432;-0.133432;0.0
1531048205705;-;-;-0.11496094;1.5807129;9.354947;0.21657722;0.11151869;-0.6335132;-9.6;27.45;-38.100002;61.76138;-8.99469;-4.6938314;1020.7511;-;-;51.52536432;-0.133432;0.0
1531048205715;-;-;-0.100590825;1.5376027;9.311836;0.1089855;-0.047205716;-0.6713301;-9.6;27.45;-38.100002;61.76138;-8.99469;-4.6938314;1020.7511;-;-;51.52536432;-0.133432;0.0
1531048205726;-;-;-0.13891114;1.4226416;9.335787;-0.00766096;-0.12230686;-0.73311543;-9.0;26.85;-38.7;62.35175;-9.282884;-5.1014156;1020.7511;-;-;51.52536432;-0.133432;0.0
1531048205735;-;-;-0.32093263;1.4322218;9.565708;-0.029498883;-0.09141419;-0.7869113;-9.0;26.85;-38.7;62.35175;-9.282884;-5.1014156;1020.7511;-;-;51.52536432;-0.133432;0.0
1531048205746;-;-;-0.19639161;1.341211;9.924961;-0.006595696;-0.0535973;-0.8588166;-9.6;26.7;-38.850002;63.078037;-9.256161;-5.1199093;1020.755;-;-;51.52536432;-0.133432;0.0
1531048205756;-;-;-0.28740236;1.336421;10.183623;0.020568546;-0.012584621;-0.90249246;-7.2000003;25.050001;-40.95;63.936203;-9.150104;-5.189688;1020.755;-;-;51.52536432;-0.133432;0.0
1531048205766;-;-;-0.71371585;1.5280225;10.442286;0.09513706;-0.006193034;-0.97439784;-7.2000003;25.050001;-40.95;63.936203;-9.150104;-5.189688;1020.755;-;-;51.52536432;-0.133432;0.0
1531048205776;-;-;-0.852627;1.5471827;10.461446;0.07170124;-0.11431738;-0.9823873;-7.2000003;27.000002;-41.25;64.898865;-9.12646;-5.376097;1020.755;-;-;51.52536432;-0.133432;0.0
1531048205787;-;-;-1.2597803;1.2933106;10.265054;-0.036423102;-0.5430863;-1.0601516;-7.2000003;27.000002;-41.25;64.898865;-9.12646;-5.376097;1020.755;-;-;51.52536432;-0.133432;0.0
1531048205796;-;-;-1.2789404;1.22625;10.490186;-0.007128328;-0.5617284;-1.0644127;-8.700001;24.750002;-39.45;66.02222;-9.023231;-5.1659074;1020.755;-;-;51.52536432;-0.133432;0.0
1531048205806;-;-;-1.3651612;1.3747413;9.867481;0.058918066;-0.66612434;-1.0068884;-8.700001;24.750002;-39.45;66.02222;-9.023231;-5.1659074;1020.755;-;-;51.52536432;-0.133432;0.0
1531048205817;-;-;-2.4093897;1.9064356;9.613608;0.06317913;-0.65121067;-0.9578862;-7.9500003;25.500002;-38.7;67.21112;-8.947856;-4.6452937;1020.755;-;-;51.52536432;-0.133432;0.0
1531048205827;-;-;-2.208208;2.2129982;9.656719;0.073831774;-0.56705475;-0.6958312;-7.9500003;25.500002;-38.7;67.21112;-8.947856;-4.6452937;1020.755;-;-;51.52536432;-0.133432;0.0
1531048205838;-;-;-1.7004639;2.2321582;9.436378;0.089810744;-0.5228463;-0.5727931;-8.400001;25.500002;-38.7;68.17195;-8.994717;-4.2431774;1020.755;-;-;51.52536432;-0.133432;0.0
1531048205847;-;-;-1.1735597;2.0166066;9.029224;0.08608232;-0.36838293;-0.4652014;-8.400001;25.500002;-38.7;68.17195;-8.994717;-4.2431774;1020.7536;-;-;51.52536432;-0.133432;0.0
1531048205858;-;-;-0.9627979;1.9782863;9.110655;0.07170124;-0.23362699;-0.42951506;-7.65;25.500002;-39.0;68.73258;-9.282706;-4.1078343;1020.7536;-;-;51.52536432;-0.133432;0.0
1531048205868;-;-;-0.7711963;1.7723145;9.211246;0.036547516;-0.05945626;-0.3757192;-7.65;25.500002;-39.0;68.73258;-9.282706;-4.1078343;1020.7536;-;-;51.52536432;-0.133432;0.0
1531048205878;-;-;-0.3065625;1.4226416;9.465117;0.029090662;0.122171335;-0.3671971;-7.8;24.6;-38.850002;69.11785;-9.311225;-3.9906461;1020.7536;-;-;51.52536432;-0.133432;0.0
1531048205889;-;-;-0.10538086;0.9963282;9.963282;0.06850545;0.30220103;-0.45348352;-7.8;24.6;-38.850002;69.11785;-9.311225;-3.9906461;1020.7536;-;-;51.52536432;-0.133432;0.0
1531048205899;-;-;-0.27303225;0.79993653;10.044712;0.09194127;0.37996534;-0.5173994;-7.9500003;23.85;-39.0;69.42273;-9.320204;-4.2345576;1020.7536;-;-;51.52536432;-0.133432;0.0
1531048205910;-;-;-0.7711963;0.9867481;10.356065;0.10845287;0.42950013;-0.5818479;-7.9500003;23.85;-39.0;69.42273;-9.320204;-4.2345576;1020.7536;-;-;51.52536432;-0.133432;0.0
1531048205920;-;-;-1.1783496;1.1208692;10.485396;0.11590972;0.3938138;-0.5898374;-7.65;24.150002;-39.9;69.84423;-9.380773;-4.764775;1020.7536;-;-;51.52536432;-0.133432;0.0
1531048205931;-;-;-1.6334034;1.4226416;10.466236;0.15212871;0.34534425;-0.5323131;-7.65;24.150002;-39.9;69.84423;-9.380773;-4.764775;1020.7536;-;-;51.52536432;-0.133432;0.0
1531048205941;-;-;-2.2225783;1.6908839;10.083033;0.2032614;0.42257592;-0.40661186;-5.55;24.750002;-38.25;70.314445;-9.4679985;-5.304396;1020.7536;-;-;51.52536432;-0.133432;0.0
1531048205951;-;-;-1.9447559;1.719624;9.915381;0.2714383;0.5743761;-0.23297375;-5.55;24.750002;-38.25;70.314445;-9.4679985;-5.304396;1020.7482;-;-;51.52536432;-0.133432;0.0
1531048205962;-;-;-1.6190332;1.6860938;9.718989;0.3076573;0.6015403;-0.1594705;-5.25;25.2;-38.25;70.5725;-9.66444;-5.867779;1020.7482;-;-;51.52536432;-0.133432;0.0
1531048205972;-;-;-1.3986914;1.1448194;9.469908;0.2959394;0.5365592;-0.15307891;-5.25;25.2;-38.25;70.5725;-9.66444;-5.867779;1020.7482;-;-;51.52536432;-0.133432;0.0
1531048205982;-;-;-0.977168;1.0490186;9.316627;0.2362846;0.4289675;-0.18024316;-6.0;23.400002;-40.2;70.54497;-9.999675;-6.5684147;1020.7482;-;-;51.52536432;-0.133432;0.0
1531048205993;-;-;-0.45026368;1.590293;9.2256155;0.1750319;0.21431671;-0.27079067;-6.0;23.400002;-40.2;70.54497;-9.999675;-6.5684147;1020.7482;-;-;51.52536432;-0.133432;0.0
1531048206003;-;-;-0.7568262;1.8202149;9.354947;0.09833285;0.08382181;-0.39968765;-6.4500003;24.300001;-38.100002;70.54697;-10.272164;-7.1040635;1020.7482;-;-;51.52536432;-0.133432;0.0
1531048206013;-;-;-0.9963282;1.6334034;9.465117;0.07276651;0.09340919;-0.42738453;-6.4500003;24.300001;-38.100002;70.54697;-10.272164;-7.1040635;1020.7482;-;-;51.52536432;-0.133432;0.0
1531048206023;-;-;-1.3699512;1.5998731;9.968072;0.08235389;0.09287656;-0.41779715;-4.2000003;23.85;-39.9;70.804405;-10.3727665;-7.318501;1020.7482;-;-;51.52536432;-0.133432;0.0
1531048206034;-;-;-1.4082716;1.7292042;10.317744;0.12283394;0.066244945;-0.39649186;-4.2000003;23.85;-39.9;70.804405;-10.3727665;-7.318501;1020.7482;-;-;51.52536432;-0.133432;0.0
1531048206044;-;-;-1.3891114;1.6094532;10.193204;0.21338142;-0.03442254;-0.40820977;-5.55;23.85;-38.7;71.1531;-10.398846;-7.5112967;1020.75;-;-;51.52536432;-0.133432;0.0
1531048206055;-;-;-1.4992822;1.4370118;9.833951;0.24054566;-0.07756575;-0.40980765;-4.2000003;24.150002;-38.25;71.37906;-10.495625;-7.5963054;1020.75;-;-;51.52536432;-0.133432;0.0
1531048206065;-;-;-1.5663428;1.5711329;9.498648;0.22190353;-0.09567525;-0.37092552;-4.2000003;24.150002;-38.25;71.49759;-10.545805;-7.6042056;1020.75;-;-;51.52536432;-0.133432;0.0
1531048206075;-;-;-1.5136524;1.585503;9.74773;0.21497932;-0.07064153;-0.37092552;-3.9;23.85;-39.45;71.73203;-10.7023945;-7.5871096;1020.75;-;-;51.52536432;-0.133432;0.0
1531048206085;-;-;-1.2406201;1.5807129;10.356065;0.2874173;-0.122839496;-0.39169818;-3.9;23.85;-39.45;71.84064;-10.750477;-7.5833826;1020.75;-;-;51.52536432;-0.133432;0.0
1531048206096;-;-;-1.1783496;1.5950831;10.4566555;0.34281105;-0.1958101;-0.4199277;-4.05;22.2;-38.4;72.058075;-10.915273;-7.5765476;1020.75;-;-;51.52536432;-0.133432;0.0
1531048206107;-;-;-1.1927198;1.7004639;9.896221;0.39074793;-0.27623758;-0.46094036;-4.05;22.2;-38.4;72.17894;-10.987095;-7.557903;1020.75;-;-;51.52536432;-0.133432;0.0
1531048206117;-;-;-1.1735597;1.8441651;9.407638;0.35293105;-0.22989856;-0.4630709;-3.3000002;21.900002;-38.100002;72.62076;-11.346028;-7.37794;1020.75;-;-;51.52536432;-0.133432;0.0
1531048206127;-;-;-1.346001;2.1507277;9.316627;0.27836254;-0.14840584;-0.4268519;-3.3000002;21.900002;-38.100002;72.62076;-11.346028;-7.37794;1020.75;-;-;51.52536432;-0.133432;0.0
1531048206137;-;-;-1.3220508;2.1650977;9.139395;0.24214356;-0.09940367;-0.41832978;-4.8;22.650002;-37.65;73.0529;-11.647415;-7.269493;1020.75;-;-;51.52536432;-0.133432;0.0
1531048206147;-;-;-1.3699512;2.2656887;8.962164;0.16278136;0.026297532;-0.39649186;-4.8;22.650002;-37.65;73.0529;-11.647415;-7.269493;1020.74896;-;-;51.52536432;-0.133432;0.0
1531048206158;-;-;-1.456172;2.193838;8.899893;0.11910551;0.12270396;-0.3773171;-3.0;21.900002;-37.2;73.40142;-11.823599;-7.3152204;1020.74896;-;-;51.52536432;-0.133432;0.0
1531048206168;-;-;-1.4849122;1.8345851;9.608819;0.07116861;0.2388178;-0.3703929;-3.0;21.900002;-37.2;73.40142;-11.823599;-7.3152204;1020.74896;-;-;51.52536432;-0.133432;0.0
1531048206178;-;-;-1.2981006;1.5232325;9.910591;0.081821255;0.20366406;-0.42472136;-2.1000001;21.0;-38.25;73.64933;-11.883903;-7.602738;1020.74896;-;-;51.52536432;-0.133432;0.0
1531048206188;-;-;-1.096919;1.4274317;10.188414;0.12017078;0.12536713;-0.5408352;-2.1000001;21.0;-38.25;73.64933;-11.883903;-7.602738;1020.74896;-;-;51.52536432;-0.133432;0.0
1531048206198;-;-;-1.1256592;1.5040723;10.121353;0.13401908;0.11045258;-0.56107855;-3.9;21.0;-37.050003;73.85664;-11.913983;-7.842458;1020.74896;-;-;51.52536432;-0.133432;0.0
1531048206209;-;-;-1.336421;1.8681153;9.992022;0.17449912;0.16637896;-0.6031565;-3.9;21.0;-37.050003;73.997375;-11.927327;-7.910325;1020.74896;-;-;51.52536432;-0.133432;0.0
1531048206218;-;-;-1.585503;1.9830762;10.083033;0.19473915;0.2265664;-0.5962323;-3.7500002;22.95;-38.850002;74.50307;-12.010686;-8.188855;1020.74896;-;-;51.52536432;-0.133432;0.0
1531048206228;-;-;-1.8058448;2.1746778;9.81958;0.21924023;0.36292028;-0.5802533;-3.7500002;22.95;-38.850002;74.50307;-12.010686;-8.188855;1020.74896;-;-;51.52536432;-0.133432;0.0
1531048206238;-;-;-1.6094532;2.3135889;9.79084;0.25599185;0.387954;-0.55894804;-3.3000002;21.900002;-38.100002;74.989365;-12.15157;-8.629601;1020.74896;-;-;51.52536432;-0.133432;0.0
1531048206248;-;-;-2.2608986;2.3375392;9.292676;0.26238346;0.4294993;-0.528588;-3.3000002;21.900002;-38.100002;74.989365;-12.15157;-8.629601;1020.75555;-;-;51.52536432;-0.133432;0.0
1531048206258;-;-;-2.5147705;2.4093897;9.038804;0.25599185;0.53123206;-0.47159636;-1.5;22.050001;-37.800003;75.39708;-12.364075;-9.210416;1020.75555;-;-;51.52536432;-0.133432;0.0
1531048206269;-;-;-2.44771;2.5818312;8.899893;0.238415;0.6942175;-0.3746573;-1.5;22.050001;-37.800003;75.39708;-12.364075;-9.210416;1020.75555;-;-;51.52536432;-0.133432;0.0
1531048206279;-;-;-2.2417383;2.5770411;9.062755;0.23575184;0.79541767;-0.33257937;-2.4;21.6;-38.4;75.62512;-12.607449;-9.984853;1020.75555;-;-;51.52536432;-0.133432;0.0
1531048206289;-;-;-2.0166066;2.5195606;9.924961;0.31032035;0.841224;-0.32458988;-2.4;21.6;-38.4;75.62512;-12.607449;-9.984853;1020.75555;-;-;51.52536432;-0.133432;0.0
1531048206299;-;-;-1.8345851;2.0405567;10.260264;0.4019331;0.728306;-0.343232;-3.6000001;20.7;-39.0;75.67195;-12.877825;-10.981574;1020.75555;-;-;51.52536432;-0.133432;0.0
1531048206309;-;-;-1.7531544;1.6765138;10.236314;0.46584895;0.5386889;-0.3714615;-3.6000001;20.7;-39.0;75.67195;-12.877825;-10.981574;1020.75555;-;-;51.52536432;-0.133432;0.0
1531048206319;-;-;-1.6573536;1.7914747;9.7142;0.4546637;0.28196016;-0.4353774;-0.45000002;21.45;-39.0;75.759575;-13.3028345;-11.857583;1020.75555;-;-;51.52536432;-0.133432;0.0
1531048206330;-;-;-1.6860938;2.2369483;8.775352;0.36624673;0.08222307;-0.5120764;-0.45000002;21.45;-39.0;75.759575;-13.3028345;-11.857583;1020.75555;-;-;51.52536432;-0.133432;0.0
1531048206339;-;-;-2.1555176;2.4620802;8.59333;0.30073297;0.037481964;-0.51633745;-0.15;19.050001;-39.0;76.058334;-13.725134;-12.27664;1020.75555;-;-;51.52536432;-0.133432;0.0
1531048206349;-;-;-2.6297317;2.6536818;8.794512;0.1425412;-0.031227592;-0.47159636;-0.15;19.050001;-39.0;76.058334;-13.725134;-12.27664;1020.7607;-;-;51.52536432;-0.133432;0.0
1531048206359;-;-;-2.9889846;2.7303224;8.962164;0.046667404;-0.13136245;-0.38637522;0.75;20.7;-37.5;76.49697;-13.89349;-12.437744;1020.7607;-;-;51.52536432;-0.133432;0.0
1531048206369;-;-;-2.8357031;2.6009912;9.235196;-0.027368478;-0.22190993;-0.3048825;0.75;20.7;-37.5;76.49697;-13.89349;-12.437744;1020.7607;-;-;51.52536432;-0.133432;0.0
1531048206380;-;-;-2.5387208;2.3758595;9.072334;-0.0822296;-0.25759628;-0.25268453;-0.15;20.400002;-38.25;76.82429;-13.858267;-12.409427;1020.7607;-;-;51.52536432;-0.133432;0.0
1531048206390;-;-;-2.1171973;2.2321582;8.708291;-0.22337714;-0.22457309;-0.21326973;-0.15;20.400002;-38.25;76.82429;-13.858267;-12.409427;1020.7607;-;-;51.52536432;-0.133432;0.0
1531048206400;-;-;-1.7292042;2.2273684;9.335787;-0.28729302;-0.23735626;-0.2409666;0.45000002;19.650002;-38.7;77.03975;-13.648002;-12.195054;1020.7607;-;-;51.52536432;-0.133432;0.0
1531048206411;-;-;-1.7675245;1.9255958;9.972861;-0.29901093;-0.38809118;-0.31606776;0.45000002;19.650002;-38.7;77.03975;-13.648002;-12.195054;1020.7607;-;-;51.52536432;-0.133432;0.0
1531048206421;-;-;-1.8441651;1.705254;10.356065;-0.27823827;-0.49035656;-0.37199414;1.35;19.5;-37.65;77.26832;-13.251579;-11.969062;1020.7607;-;-;51.52536432;-0.133432;0.0
1531048206432;-;-;-1.8920655;1.8345851;10.437495;-0.20420238;-0.5468156;-0.44816056;1.35;19.5;-37.65;77.26832;-13.251579;-11.969062;1020.7607;-;-;51.52536432;-0.133432;0.0
1531048206442;-;-;-1.5807129;1.8250049;10.174044;-0.14880863;-0.53030396;-0.52326167;1.2;21.0;-37.800003;77.69592;-12.83374;-11.527316;1020.7585;-;-;51.52536432;-0.133432;0.0
1531048206452;-;-;-1.7387843;2.059717;9.901011;-0.09341487;-0.47331232;-0.61700493;1.2;21.0;-37.800003;77.69592;-12.83374;-11.527316;1020.7585;-;-;51.52536432;-0.133432;0.0
1531048206462;-;-;-2.1028273;2.3471193;9.580078;-0.05666325;-0.39608064;-0.64683235;2.4;19.5;-37.65;78.28924;-12.513377;-11.070531;1020.7585;-;-;51.52536432;-0.133432;0.0
1531048206474;-;-;-2.44771;2.5004005;9.283096;-0.053467456;-0.29860896;-0.5834491;-0.3;19.2;-37.65;78.77999;-12.336686;-10.835646;1020.7585;-;-;51.52536432;-0.133432;0.0
1531048206483;-;-;-2.6009912;2.44292;9.283096;-0.05932641;-0.099404514;-0.4524216;-0.3;19.2;-37.65;78.97828;-12.285571;-10.780903;1020.7585;-;-;51.52536432;-0.133432;0.0
1531048206494;-;-;-2.5578809;2.5195606;9.5561285;-0.03748849;0.047601976;-0.37305942;0.45000002;19.650002;-37.5;79.320595;-12.15186;-10.716206;1020.7585;-;-;51.52536432;-0.133432;0.0
1531048206504;-;-;-2.4620802;2.4668703;9.79084;-0.007128453;0.15945475;-0.29316458;0.45000002;19.650002;-37.5;79.43788;-12.115823;-10.737392;1020.7585;-;-;51.52536432;-0.133432;0.0
1531048206514;-;-;-2.4716604;2.4189699;10.178833;0.029090537;0.15146527;-0.26972875;1.2;18.0;-37.5;79.5603;-12.047736;-10.895782;1020.7585;-;-;51.52536432;-0.133432;0.0
1531048206524;-;-;-2.5530908;2.4908204;10.169253;0.116442226;-0.061587628;-0.22658554;1.2;18.0;-37.5;79.628685;-12.037687;-10.958514;1020.7585;-;-;51.52536432;-0.133432;0.0
1531048206535;-;-;-2.3423293;2.308799;10.001602;0.12017065;-0.14148246;-0.22019395;1.6500001;19.800001;-37.2;79.69313;-12.05975;-11.0581045;1020.7585;-;-;51.52536432;-0.133432;0.0
1531048206545;-;-;-2.193838;2.2561085;9.546548;0.07702744;-0.2597268;-0.22711816;1.6500001;19.800001;-37.2;79.76193;-12.081966;-11.046343;1020.758;-;-;51.52536432;-0.133432;0.0
1531048206555;-;-;-2.184258;2.3566992;9.297466;0.05305899;-0.2895542;-0.23883608;0.75;19.650002;-37.800003;79.850624;-12.132979;-10.919726;1020.758;-;-;51.52536432;-0.133432;0.0
1531048206565;-;-;-2.4572902;2.3854396;9.201666;-0.060924307;-0.37104693;-0.25588033;0.75;19.650002;-37.800003;79.933525;-12.1365595;-10.857221;1020.758;-;-;51.52536432;-0.133432;0.0
1531048206575;-;-;-2.6441016;2.4812403;9.172925;-0.11631806;-0.4312344;-0.2425645;0.0;19.2;-38.850002;80.07381;-12.089151;-10.633626;1020.758;-;-;51.52536432;-0.133432;0.0
1531048206586;-;-;-3.0895753;2.4860303;9.503438;-0.21219186;-0.49674815;-0.14136438;0.0;19.2;-38.850002;80.16891;-12.057036;-10.546678;1020.758;-;-;51.52536432;-0.133432;0.0
1531048206596;-;-;-3.032095;2.4716604;9.891431;-0.25107402;-0.55533767;-0.06573061;1.35;20.25;-38.850002;80.35437;-11.828551;-10.111402;1020.758;-;-;51.52536432;-0.133432;0.0
1531048206606;-;-;-2.5914114;2.548301;9.7812605;-0.26811826;-0.60487247;0.0130989645;1.35;20.25;-38.850002;80.35437;-11.828551;-10.111402;1020.758;-;-;51.52536432;-0.133432;0.0
1531048206616;-;-;-2.327959;2.5770411;9.74773;-0.24947612;-0.5569356;0.05517691;1.2;19.650002;-37.800003;80.37819;-11.5064945;-9.45655;1020.758;-;-;51.52536432;-0.133432;0.0
1531048206627;-;-;-2.0070264;2.3471193;9.968072;-0.13069914;-0.35613322;0.12814753;1.2;19.650002;-37.800003;80.37819;-11.5064945;-9.45655;1020.758;-;-;51.52536432;-0.133432;0.0
1531048206637;-;-;-1.8681153;2.208208;10.145303;-0.06944642;-0.29328263;0.12708227;0.45000002;19.650002;-37.800003;80.24302;-11.2773695;-8.914251;1020.758;-;-;51.52536432;-0.133432;0.0
1531048206648;-;-;-1.8202149;2.0549269;10.312955;0.14573699;-0.19208252;0.15105072;0.45000002;19.650002;-37.800003;80.24302;-11.2773695;-8.914251;1020.763;-;-;51.52536432;-0.133432;0.0
1531048206657;-;-;-1.6429834;2.074087;10.145303;0.24587184;-0.18302777;0.15424651;0.45000002;19.95;-38.25;80.000145;-11.3279915;-8.615935;1020.763;-;-;51.52536432;-0.133432;0.0
1531048206667;-;-;-1.6477735;2.1555176;9.671089;0.3124509;-0.15905933;0.14838755;0.45000002;19.95;-38.25;80.000145;-11.3279915;-8.615935;1020.763;-;-;51.52536432;-0.133432;0.0
1531048206677;-;-;-1.3555812;2.3519094;9.163345;0.3476046;-0.10313294;0.13666965;0.15;18.6;-38.7;79.76612;-11.568401;-8.446204;1020.763;-;-;51.52536432;-0.133432;0.0
1531048206688;-;-;-1.1831397;2.4141798;8.799302;0.2810256;0.01724194;0.12069067;0.15;18.6;-38.7;79.73226;-11.671513;-8.401606;1020.763;-;-;51.52536432;-0.133432;0.0
1531048206698;-;-;-1.2310401;2.543511;8.784932;0.24107815;0.035884067;0.104711704;-0.15;20.400002;-37.5;79.49524;-11.97041;-8.322337;1020.763;-;-;51.52536432;-0.133432;0.0
1531048206708;-;-;-1.4944923;2.5962012;9.005274;0.12656191;0.015109305;0.07913694;-0.15;20.400002;-37.5;79.45983;-12.056633;-8.319002;1020.763;-;-;51.52536432;-0.133432;0.0
1531048206719;-;-;-1.8585353;2.6488917;9.192085;0.042406034;-0.062122367;0.091920115;-0.3;18.45;-36.75;79.21122;-12.28591;-8.334495;1020.763;-;-;51.52536432;-0.133432;0.0
1531048206728;-;-;-1.8776954;2.6297317;9.359736;-0.0076613966;-0.13083193;0.0983117;-0.3;18.45;-36.75;79.21122;-12.28591;-8.334495;1020.763;-;-;51.52536432;-0.133432;0.0
1531048206738;-;-;-1.7771046;2.5291407;9.283096;-0.038021434;-0.19208463;0.10204013;0.45000002;18.6;-37.800003;79.01134;-12.339853;-8.272871;1020.763;-;-;51.52536432;-0.133432;0.0
1531048206749;-;-;-1.590293;2.4812403;9.666299;-0.14880894;-0.320449;0.15050967;0.45000002;18.6;-37.800003;78.9934;-12.337019;-8.223004;1020.7667;-;-;51.52536432;-0.133432;0.0
1531048206759;-;-;-1.4034815;2.3327491;9.996812;-0.16212475;-0.3619943;0.15849915;-0.45000002;20.7;-36.600002;78.77407;-12.230112;-7.899558;1020.7667;-;-;51.52536432;-0.133432;0.0
1531048206769;-;-;-1.4322218;1.9591261;10.657837;-0.12164469;-0.49941343;0.16062967;-0.45000002;20.7;-36.600002;78.77407;-12.230112;-7.899558;1020.7667;-;-;51.52536432;-0.133432;0.0
1531048206779;-;-;-1.3939015;1.7675245;11.074571;-0.008194029;-0.6389631;0.1494444;-0.45000002;20.400002;-36.15;78.565445;-12.072352;-7.377708;1020.7667;-;-;51.52536432;-0.133432;0.0
1531048206790;-;-;-1.3795313;1.695674;10.997931;0.048264988;-0.69382423;0.15477072;-0.45000002;20.400002;-36.15;78.565445;-12.072352;-7.377708;1020.7667;-;-;51.52536432;-0.133432;0.0
1531048206801;-;-;-1.3507911;1.9639161;10.365645;0.151063;-0.8008833;0.15423809;0.45000002;21.0;-37.800003;78.411194;-12.0620575;-6.628074;1020.7667;-;-;51.52536432;-0.133432;0.0
1531048206811;-;-;-1.2981006;2.323169;9.460327;0.18834725;-0.753479;0.17873918;0.45000002;21.0;-37.800003;78.411194;-12.0620575;-6.628074;1020.7667;-;-;51.52536432;-0.133432;0.0
1531048206821;-;-;-1.3076807;2.43813;9.005274;0.18355356;-0.7241843;0.19631603;0.15;19.650002;-37.800003;78.28273;-12.242929;-5.708082;1020.7667;-;-;51.52536432;-0.133432;0.0
1531048206832;-;-;-1.2549903;2.6057813;8.756192;0.042938665;-0.46159652;0.33373514;0.15;19.650002;-37.800003;78.28273;-12.242929;-5.708082;1020.7667;-;-;51.52536432;-0.133432;0.0
1531048206841;-;-;-1.092129;2.5387208;8.966953;-0.026303526;-0.39448488;0.39125943;-1.2;18.0;-35.850002;78.01505;-12.40721;-4.9664636;1020.7667;-;-;51.52536432;-0.133432;0.0
1531048206851;-;-;-0.7759864;2.3854396;9.216036;-0.071577266;-0.36412483;0.4333374;-1.2;18.0;-35.850002;78.01505;-12.40721;-4.9664636;1020.7627;-;-;51.52536432;-0.133432;0.0
1531048206861;-;-;-0.68976563;1.9351759;9.580078;-0.12910156;-0.39235434;0.44452265;-3.15;20.400002;-34.95;77.62001;-12.411401;-4.5587564;1020.7627;-;-;51.52536432;-0.133432;0.0
1531048206872;-;-;-1.0490186;0.89573735;9.881851;-0.13229735;-0.3737122;0.6208239;-1.5;19.35;-37.5;77.07162;-12.16382;-4.0838175;1020.7627;-;-;51.52536432;-0.133432;0.0
1531048206882;-;-;0.45984375;1.22146;9.881851;-0.11205731;-0.35400483;0.60537755;-1.5;19.35;-37.5;76.93823;-12.011115;-3.9987857;1020.7627;-;-;51.52536432;-0.133432;0.0
1531048206892;-;-;1.6477735;1.3268409;10.116563;-0.06678358;-0.23416257;0.35184464;-1.5;19.95;-37.5;76.38311;-11.728504;-3.3031344;1020.7627;-;-;51.52536432;-0.133432;0.0
1531048206903;-;-;1.101709;1.585503;10.772799;0.0253618;-0.1404193;0.10896435;-1.5;19.95;-37.5;76.2838;-11.685324;-3.1365633;1020.7627;-;-;51.52536432;-0.133432;0.0
1531048206913;-;-;0.7424561;1.5807129;10.97877;0.0914082;-0.12763612;0.06848429;-1.5;19.95;-37.5;76.2838;-11.685324;-3.1365633;1020.7627;-;-;51.52536432;-0.133432;0.0
