TimeStamp[ms];Prox[Cm];Lux[lux];AccX[m/s^2];AccY[m/s^2];AccZ[m/s^2];GyroX[rad/s];GyroY[rad/s];GyroZ[rad/s];MagnX[uT];MagnY[uT];MagnZ[uT];OrienYaw[degrees];OrienPitch[degrees];OrienRoll[degrees];Press[Pa];Temp[C°];Batt[%];Lat;Lng;Speed[m/s]
1531048425479;-;-;0.119750984;1.0250684;9.70941;-0.05082603;-0.13417237;0.041274745;-16.5;36.300003;-40.050003;20.074568;-5.503728;1.6674548;1020.7016;-;-;51.52506211;-0.1334568;1.9700000286102295
1531048425483;-;-;0.20597169;0.9532178;9.656719;-0.061478678;-0.14642291;0.055655815;-14.55;38.850002;-38.7;20.048218;-5.5566278;1.7047447;1020.7016;-;-;51.52506211;-0.1334568;1.9700000286102295
1531048425496;-;-;0.3161426;1.0442286;10.130933;-0.07905553;-0.19329454;0.031687364;-14.55;38.850002;-38.7;20.048218;-5.5566278;1.7047447;1020.7016;-;-;51.52506211;-0.1334568;1.9700000286102295
1531048425500;-;-;0.33530274;1.0442286;10.092612;-0.06627236;-0.20554508;0.037013687;-14.55;38.850002;-38.7;20.048218;-5.5566278;1.7047447;1020.7016;-;-;51.52506211;-0.1334568;1.9700000286102295
1531048425511;-;-;0.3161426;0.91010743;10.274634;-0.03324917;-0.20288192;0.024763148;-16.35;39.600002;-39.9;20.015999;-5.526346;1.8255831;1020.7016;-;-;51.52506211;-0.1334568;1.9700000286102295
1531048425521;-;-;0.31135255;0.90052736;10.221944;-0.013541775;-0.18530506;0.018904194;-16.35;39.600002;-39.9;20.015999;-5.526346;1.8255831;1020.7016;-;-;51.52506211;-0.1334568;1.9700000286102295
1531048425531;-;-;0.23950197;0.847837;10.245894;0.008296146;-0.17092398;0.017838929;-17.85;38.7;-38.850002;19.984745;-5.441887;2.0342197;1020.75183;-;-;51.52506211;-0.1334568;1.9700000286102295
1531048425541;-;-;0.3065625;0.8286768;10.188414;0.010959308;-0.1480208;0.026361044;-16.95;38.550003;-41.550003;19.97916;-5.4026194;2.262499;1020.75183;-;-;51.52506211;-0.1334568;1.9700000286102295
1531048425552;-;-;0.45505372;0.977168;10.106983;0.010426675;-0.05321226;0.017306296;-16.95;38.550003;-41.550003;19.97916;-5.4026194;2.262499;1020.75183;-;-;51.52506211;-0.1334568;1.9700000286102295
1531048425562;-;-;0.43589357;0.9436377;10.106983;0.012557204;-0.009003784;0.0013273298;-17.550001;38.4;-40.5;19.977278;-5.4094696;2.4500725;1020.75183;-;-;51.52506211;-0.1334568;1.9700000286102295
1531048425572;-;-;0.35925296;1.0011182;10.269844;0.028003538;0.011236241;-0.014119005;-17.550001;38.4;-40.5;19.977278;-5.4094696;2.4500725;1020.75183;-;-;51.52506211;-0.1334568;1.9700000286102295
1531048425582;-;-;0.43110353;0.9148975;10.226734;0.05783094;0.013899403;-0.016249534;-17.1;38.7;-41.7;19.97147;-5.4239974;2.5176747;1020.75183;-;-;51.52506211;-0.1334568;1.9700000286102295
1531048425593;-;-;0.3784131;0.977168;10.250684;0.09831099;0.029345738;-0.0109232105;-17.1;38.7;-41.7;19.97147;-5.4239974;2.5176747;1020.75183;-;-;51.52506211;-0.1334568;1.9700000286102295
1531048425603;-;-;0.364043;0.92926764;10.183623;0.106833115;0.016029932;-0.020510592;-15.900001;37.5;-40.65;19.97623;-5.460963;2.5080383;1020.75183;-;-;51.52506211;-0.1334568;1.9700000286102295
1531048425613;-;-;0.3305127;1.0059083;9.977652;0.11428996;0.021356253;-0.012521109;-15.900001;37.5;-40.65;19.97623;-5.460963;2.5080383;1020.75183;-;-;51.52506211;-0.1334568;1.9700000286102295
1531048425623;-;-;0.28261232;0.9963282;9.905801;0.11215943;0.02029099;-0.011988476;-15.750001;38.100002;-39.300003;19.986217;-5.562442;2.480512;1020.7512;-;-;51.52506211;-0.1334568;1.9700000286102295
1531048425633;-;-;0.29698244;1.0490186;9.848321;0.11215943;0.020823622;-0.013053739;-15.750001;38.100002;-39.300003;19.986217;-5.562442;2.480512;1020.7512;-;-;51.52506211;-0.1334568;1.9700000286102295
1531048425644;-;-;0.42152345;0.97237796;9.857901;0.10150679;0.02561731;-0.016782166;-16.95;37.2;-39.45;19.998999;-5.692105;2.4561965;1020.7512;-;-;51.52506211;-0.1334568;1.9700000286102295
1531048425654;-;-;0.39278322;0.9867481;9.73815;0.08446256;0.02774784;-0.015184268;-16.95;37.2;-39.45;19.998999;-5.692105;2.4561965;1020.7512;-;-;51.52506211;-0.1334568;1.9700000286102295
1531048425664;-;-;0.39278322;1.0538087;9.666299;0.05250462;0.019225724;-0.019977959;-15.450001;37.050003;-39.600002;20.010832;-5.8185205;2.4316158;1020.7512;-;-;51.52506211;-0.1334568;1.9700000286102295
1531048425674;-;-;0.2682422;1.0059083;9.924961;0.031731963;0.026149943;-0.01039058;-15.450001;37.050003;-39.600002;20.010832;-5.8185205;2.4316158;1020.7512;-;-;51.52506211;-0.1334568;1.9700000286102295
1531048425684;-;-;0.35925296;1.0442286;9.992022;0.022677217;0.021356253;-0.015716901;-17.1;36.300003;-39.300003;20.026106;-5.9163465;2.3993387;1020.7512;-;-;51.52506211;-0.1334568;1.9700000286102295
1531048425694;-;-;0.32093263;0.9244776;9.920172;0.019481422;0.038400482;-0.016249534;-17.1;36.300003;-39.300003;20.026106;-5.9163465;2.3993387;1020.7512;-;-;51.52506211;-0.1334568;1.9700000286102295
1531048425705;-;-;0.3305127;0.97237796;9.915381;0.021079319;0.048520494;-0.019445326;-17.7;38.25;-39.9;20.04089;-5.9567533;2.3694155;1020.7512;-;-;51.52506211;-0.1334568;1.9700000286102295
1531048425715;-;-;0.45505372;0.92926764;9.901011;0.014687733;0.08740265;-0.021043224;-17.7;38.25;-39.9;20.04089;-5.9567533;2.3694155;1020.7512;-;-;51.52506211;-0.1334568;1.9700000286102295
1531048425725;-;-;0.3879932;0.9484278;9.862691;0.014155101;0.09912056;-0.02743481;-17.25;38.550003;-39.9;20.05216;-5.9833126;2.3248026;1020.7551;-;-;51.52506211;-0.1334568;1.9700000286102295
1531048425735;-;-;0.28261232;0.91010743;9.982442;-0.0028891307;0.081011064;-0.026902178;-17.25;38.550003;-39.9;20.05216;-5.9833126;2.3248026;1020.7551;-;-;51.52506211;-0.1334568;1.9700000286102295
1531048425747;-;-;0.25866213;0.8813672;10.001602;-0.003421014;0.055449773;-0.02102302;-16.800001;36.0;-40.5;20.070272;-6.0035276;2.23868;1020.7551;-;-;51.52506211;-0.1334568;1.9700000286102295
1531048425757;-;-;0.244292;0.93405765;10.207574;0.016286377;0.010708665;-0.0066419486;-16.800001;36.0;-40.5;20.070272;-6.0035276;2.23868;1020.7551;-;-;51.52506211;-0.1334568;1.9700000286102295
1531048425767;-;-;0.28261232;1.0154883;10.241104;0.053570636;-0.022847164;-0.003978788;-17.25;37.800003;-40.65;20.091166;-6.0082726;2.133463;1020.7551;-;-;51.52506211;-0.1334568;1.9700000286102295
1531048425777;-;-;0.3544629;0.9867481;10.250684;0.082332775;-0.046282984;-0.0045114197;-17.25;37.800003;-40.65;20.091166;-6.0082726;2.133463;1020.7551;-;-;51.52506211;-0.1334568;1.9700000286102295
1531048425787;-;-;0.42152345;0.98195803;10.150093;0.10896438;-0.044685084;-0.017294593;-15.6;38.550003;-39.9;20.102882;-6.015396;2.093272;1020.7551;-;-;51.52506211;-0.1334568;1.9700000286102295
1531048425797;-;-;0.35925296;1.0490186;10.0063925;0.12547599;-0.050011408;-0.015696697;-15.6;38.550003;-39.9;20.102882;-6.015396;2.093272;1020.7551;-;-;51.52506211;-0.1334568;1.9700000286102295
1531048425807;-;-;0.37362307;0.9867481;9.829161;0.12068229;-0.030836647;-0.015696697;-16.650002;38.850002;-39.9;20.110783;-6.0867076;2.1273646;1020.7551;-;-;51.52506211;-0.1334568;1.9700000286102295
1531048425818;-;-;0.4263135;0.97237796;9.632769;0.10789912;-0.009531359;-0.027414605;-16.650002;38.850002;-39.9;20.110783;-6.0867076;2.1273646;1020.754;-;-;51.52506211;-0.1334568;1.9700000286102295
1531048425828;-;-;0.3544629;1.0250684;9.527389;0.06315801;0.003251814;-0.024751445;-15.450001;37.65;-40.95;20.130882;-6.2136126;2.1835804;1020.754;-;-;51.52506211;-0.1334568;1.9700000286102295
1531048425838;-;-;0.39278322;1.1304493;9.68067;0.0381243;0.0069802394;-0.022620916;-15.450001;37.65;-40.95;20.130882;-6.2136126;2.1835804;1020.754;-;-;51.52506211;-0.1334568;1.9700000286102295
1531048425848;-;-;0.33530274;1.0825489;9.929751;0.02853692;0.007512872;-0.027414605;-16.800001;37.65;-38.850002;20.157352;-6.347402;2.202386;1020.754;-;-;51.52506211;-0.1334568;1.9700000286102295
1531048425858;-;-;0.48379397;1.0154883;10.083033;0.037059035;0.0016539174;-0.026349341;-16.800001;37.65;-38.850002;20.157352;-6.347402;2.202386;1020.754;-;-;51.52506211;-0.1334568;1.9700000286102295
1531048425868;-;-;0.4167334;0.9627979;9.944121;0.04984221;0.015502355;-0.0455241;-15.750001;36.600002;-39.300003;20.185923;-6.4128137;2.1945539;1020.754;-;-;51.52506211;-0.1334568;1.9700000286102295
1531048425879;-;-;0.34967285;1.1064991;9.75731;0.047711678;0.021893943;-0.03274093;-15.750001;36.600002;-39.300003;20.185923;-6.4128137;2.1945539;1020.754;-;-;51.52506211;-0.1334568;1.9700000286102295
1531048425888;-;-;0.29698244;0.9963282;9.77168;0.025341125;0.028818162;-0.04978516;-13.500001;36.9;-40.2;20.217442;-6.4514203;2.186049;1020.754;-;-;51.52506211;-0.1334568;1.9700000286102295
1531048425898;-;-;0.3161426;1.096919;9.81958;0.0072316304;0.009643401;-0.04339357;-13.500001;36.9;-40.2;20.217442;-6.4514203;2.186049;1020.754;-;-;51.52506211;-0.1334568;1.9700000286102295
1531048425908;-;-;0.2682422;1.096919;9.939331;-0.013008394;-0.005802934;-0.040730413;-15.450001;37.65;-40.5;20.268618;-6.504703;2.16353;1020.754;-;-;51.52506211;-0.1334568;1.9700000286102295
1531048425918;-;-;0.3065625;1.0777588;10.035132;-0.015671555;-0.013259785;-0.037001986;-15.450001;37.65;-40.5;20.268618;-6.504703;2.16353;1020.7512;-;-;51.52506211;-0.1334568;1.9700000286102295
1531048425928;-;-;0.1580713;1.101709;9.982442;-0.005551543;-0.03136928;-0.041263044;-15.900001;38.25;-38.7;20.318615;-6.525879;2.1324174;1020.7512;-;-;51.52506211;-0.1334568;1.9700000286102295
1531048425939;-;-;0.21555176;1.0873389;10.068663;-7.578528E-4;-0.0548051;-0.029012503;-15.900001;38.25;-38.7;20.318615;-6.525879;2.1324174;1020.7512;-;-;51.52506211;-0.1334568;1.9700000286102295
1531048425948;-;-;0.29698244;1.0873389;10.193204;0.021080067;-0.06705564;-0.025284078;-15.900001;37.2;-39.0;20.367664;-6.5110397;2.1369953;1020.7512;-;-;51.52506211;-0.1334568;1.9700000286102295
1531048425958;-;-;0.2778223;1.0825489;10.174044;0.048776943;-0.06385985;-0.0306104;-15.900001;37.2;-39.0;20.367664;-6.5110397;2.1369953;1020.7512;-;-;51.52506211;-0.1334568;1.9700000286102295
1531048425968;-;-;0.43110353;1.0490186;9.881851;0.06582118;-0.048946142;-0.04978516;-15.6;38.550003;-39.0;20.412294;-6.506656;2.1779978;1020.7512;-;-;51.52506211;-0.1334568;1.9700000286102295
1531048425978;-;-;0.35925296;1.0442286;9.560919;0.034395874;-0.022847164;-0.05457885;-15.6;38.550003;-39.0;20.412294;-6.506656;2.1779978;1020.7512;-;-;51.52506211;-0.1334568;1.9700000286102295
1531048425989;-;-;0.23950197;1.0538087;9.422008;-0.008214704;0.007512872;-0.04499147;-15.150001;36.300003;-40.050003;20.45184;-6.54404;2.249203;1020.7512;-;-;51.52506211;-0.1334568;1.9700000286102295
1531048425999;-;-;0.14370118;1.1448194;9.599238;-0.0593474;-0.003672405;-0.039665148;-15.150001;36.300003;-40.050003;20.45184;-6.54404;2.249203;1020.7512;-;-;51.52506211;-0.1334568;1.9700000286102295
1531048426009;-;-;0.17723145;1.0777588;9.72378;-0.09130533;-0.039358765;-0.034338824;-15.450001;37.050003;-40.050003;20.517242;-6.603417;2.2868137;1020.7512;-;-;51.52506211;-0.1334568;1.9700000286102295
1531048426019;-;-;0.2682422;1.1064991;9.833951;-0.115806416;-0.07344723;-0.023153547;-15.450001;37.050003;-40.050003;20.517242;-6.603417;2.2868137;1020.7506;-;-;51.52506211;-0.1334568;1.9700000286102295
1531048426029;-;-;0.33530274;1.1256592;9.910591;-0.11900221;-0.1043399;-0.05031779;-16.650002;37.800003;-40.2;20.573603;-6.5702615;2.2792811;1020.7506;-;-;51.52506211;-0.1334568;1.9700000286102295
1531048426039;-;-;0.31135255;1.1256592;9.877061;-0.11846957;-0.12244939;-0.057774644;-16.650002;37.800003;-40.2;20.573603;-6.5702615;2.2792811;1020.7506;-;-;51.52506211;-0.1334568;1.9700000286102295
1531048426049;-;-;0.26345217;1.0250684;9.78605;-0.12858959;-0.13469994;-0.064166225;-15.750001;37.65;-38.850002;20.619173;-6.4583535;2.3287067;1020.7506;-;-;51.52506211;-0.1334568;1.9700000286102295
1531048426060;-;-;0.19160157;0.9867481;9.766891;-0.1387096;-0.1176557;-0.051915687;-15.750001;37.65;-38.850002;20.619173;-6.4583535;2.3287067;1020.7506;-;-;51.52506211;-0.1334568;1.9700000286102295
1531048426070;-;-;0.19639161;0.7951465;10.217154;-0.09556639;-0.080904074;-0.0050440524;-15.900001;36.9;-38.7;20.691687;-6.325757;2.4479454;1020.7506;-;-;51.52506211;-0.1334568;1.9700000286102295
1531048426080;-;-;0.244292;0.7759864;10.332115;-0.03804211;-0.09262199;2.8227014E-4;-15.900001;35.850002;-38.7;20.77103;-6.1801734;2.58728;1020.7506;-;-;51.52506211;-0.1334568;1.9700000286102295
1531048426090;-;-;0.17723145;1.0633887;10.403965;0.026939023;-0.16186418;0.0066738566;-15.900001;35.850002;-38.7;20.77103;-6.1801734;2.58728;1020.7506;-;-;51.52506211;-0.1334568;1.9700000286102295
1531048426100;-;-;0.27303225;1.2885206;10.303374;0.051972736;-0.14854838;0.011467546;-15.750001;37.65;-40.050003;20.793102;-6.084173;2.6971648;1020.7506;-;-;51.52506211;-0.1334568;1.9700000286102295
1531048426111;-;-;0.5939649;1.1927198;9.944121;0.047179047;-0.09635041;0.002412799;-15.750001;37.65;-40.050003;20.793102;-6.084173;2.6971648;1020.7506;-;-;51.52506211;-0.1334568;1.9700000286102295
1531048426121;-;-;0.6945557;1.0394385;9.800421;0.021080067;-0.08143671;-0.026881974;-15.6;37.5;-37.800003;20.806204;-6.1177616;2.8693895;1020.7493;-;-;51.52506211;-0.1334568;1.9700000286102295
1531048426131;-;-;0.6227051;1.0154883;9.77647;-0.035911582;-0.027640855;-0.053513587;-15.6;37.5;-37.800003;20.806204;-6.1177616;2.8693895;1020.7493;-;-;51.52506211;-0.1334568;1.9700000286102295
1531048426142;-;-;0.52690434;1.0681788;9.939331;-0.04762949;-0.0127271535;-0.055644114;-16.650002;37.5;-37.800003;20.829338;-6.165945;2.972104;1020.7493;-;-;51.52506211;-0.1334568;1.9700000286102295
1531048426152;-;-;0.49337405;1.092129;10.044712;-0.048694752;-0.0068681985;-0.043926205;-16.650002;37.5;-37.800003;20.829338;-6.165945;2.972104;1020.7493;-;-;51.52506211;-0.1334568;1.9700000286102295
1531048426162;-;-;0.488584;1.1112891;10.159674;-0.039640006;0.0064476067;-0.05670938;-16.5;37.350002;-38.850002;20.889044;-6.139366;3.0029907;1020.7493;-;-;51.52506211;-0.1334568;1.9700000286102295
1531048426172;-;-;0.4742139;1.101709;10.092612;-0.019932613;-0.0031397727;-0.054046217;-16.5;37.350002;-38.850002;20.889044;-6.139366;3.0029907;1020.7493;-;-;51.52506211;-0.1334568;1.9700000286102295
1531048426182;-;-;0.5029541;1.0777588;10.145303;-0.011943129;0.0011212851;-0.050850425;-16.650002;36.9;-39.45;20.948566;-6.0888786;3.0002854;1020.7493;-;-;51.52506211;-0.1334568;1.9700000286102295
1531048426192;-;-;0.46942386;1.1400293;10.183623;0.004035837;-0.022314532;-0.039665148;-16.650002;36.9;-39.45;20.948566;-6.0888786;3.0002854;1020.7493;-;-;51.52506211;-0.1334568;1.9700000286102295
1531048426203;-;-;0.4981641;1.0538087;10.078242;0.019482171;-0.016455578;-0.03540409;-17.7;37.5;-38.7;21.009567;-6.0637197;3.0003903;1020.7493;-;-;51.52506211;-0.1334568;1.9700000286102295
1531048426213;-;-;0.4742139;1.0825489;9.953702;0.026939023;-0.02444506;-0.04925253;-17.7;37.5;-38.7;21.009567;-6.0637197;3.0003903;1020.75;-;-;51.52506211;-0.1334568;1.9700000286102295
1531048426223;-;-;0.4023633;1.096919;10.001602;0.026939023;-0.036695603;-0.03806725;-17.25;37.2;-38.7;21.061932;-6.0680175;3.014733;1020.75;-;-;51.52506211;-0.1334568;1.9700000286102295
1531048426233;-;-;0.39757326;1.0681788;10.078242;0.0381243;-0.02391243;-0.022088284;-17.25;37.2;-38.7;21.061932;-6.0680175;3.014733;1020.75;-;-;51.52506211;-0.1334568;1.9700000286102295
1531048426244;-;-;0.46463382;1.0681788;9.977652;0.041852724;0.007512872;-0.017827226;-16.800001;37.350002;-38.850002;21.110645;-6.097874;3.0333216;1020.75;-;-;51.52506211;-0.1334568;1.9700000286102295
1531048426254;-;-;0.5125342;1.1256592;9.872271;0.032265343;0.026687633;-0.022088284;-16.800001;37.350002;-38.850002;21.110645;-6.097874;3.0333216;1020.75;-;-;51.52506211;-0.1334568;1.9700000286102295
1531048426264;-;-;0.50774413;1.0154883;9.72378;0.022145333;0.036275014;-0.03540409;-17.25;37.2;-38.7;21.14054;-6.141972;3.0561302;1020.75;-;-;51.52506211;-0.1334568;1.9700000286102295
1531048426274;-;-;0.45505372;1.1112891;9.685459;-0.00714944;0.046927657;-0.034338824;-17.25;37.2;-38.7;21.14054;-6.141972;3.0561302;1020.75;-;-;51.52506211;-0.1334568;1.9700000286102295
1531048426284;-;-;0.44547364;1.0585986;9.79563;-0.035378948;0.03787291;-0.033806194;-16.5;35.7;-38.4;21.158329;-6.1842093;3.025537;1020.75;-;-;51.52506211;-0.1334568;1.9700000286102295
1531048426294;-;-;0.44547364;1.0873389;9.958491;-0.04496633;0.024024472;-0.031143032;-16.5;35.7;-38.4;21.158329;-6.1842093;3.025537;1020.75;-;-;51.52506211;-0.1334568;1.9700000286102295
1531048426305;-;-;0.3305127;1.0585986;10.030342;-0.036976844;0.012839193;-0.018359859;-15.450001;38.100002;-40.050003;21.19565;-6.1844554;2.9736495;1020.75;-;-;51.52506211;-0.1334568;1.9700000286102295
1531048426315;-;-;0.31135255;1.0729688;10.083033;-0.011943129;-0.011661888;-0.007707213;-15.450001;38.100002;-40.050003;21.19565;-6.1844554;2.9736495;1020.74774;-;-;51.52506211;-0.1334568;1.9700000286102295
1531048426325;-;-;0.32093263;0.977168;9.901011;0.0072316304;-0.027640855;0.0018801668;-17.1;37.350002;-38.850002;21.230911;-6.1384616;2.9365568;1020.74774;-;-;51.52506211;-0.1334568;1.9700000286102295
1531048426335;-;-;0.3879932;1.0059083;9.896221;0.018949538;-0.033499807;0.007739121;-17.1;37.350002;-38.850002;21.230911;-6.1384616;2.9365568;1020.74774;-;-;51.52506211;-0.1334568;1.9700000286102295
1531048426345;-;-;0.35925296;1.0106983;9.992022;0.018949538;-0.049478777;0.0045433277;-15.750001;38.4;-39.300003;21.246334;-6.1139727;2.9452806;1020.74774;-;-;51.52506211;-0.1334568;1.9700000286102295
1531048426355;-;-;0.39757326;1.0106983;10.030342;0.04291799;-0.0532072;0.0018801668;-15.750001;38.4;-39.300003;21.246334;-6.1139727;2.9452806;1020.74774;-;-;51.52506211;-0.1334568;1.9700000286102295
1531048426366;-;-;0.4742139;1.0106983;9.968072;0.06369065;-0.032967176;-0.011968272;-17.1;37.350002;-39.300003;21.250175;-6.1301765;2.9826763;1020.74774;-;-;51.52506211;-0.1334568;1.9700000286102295
1531048426376;-;-;0.3879932;1.0633887;9.881851;0.04611378;-0.032434545;-0.022088284;-17.1;37.350002;-39.300003;21.250175;-6.1301765;2.9826763;1020.74774;-;-;51.52506211;-0.1334568;1.9700000286102295
1531048426386;-;-;0.3161426;1.101709;9.75252;0.028004287;-0.05587036;-0.032208294;-16.800001;36.0;-40.050003;21.252924;-6.163371;3.0398636;1020.74774;-;-;51.52506211;-0.1334568;1.9700000286102295
1531048426396;-;-;0.34967285;1.0681788;9.77168;0.008296895;-0.06013142;-0.033806194;-16.800001;36.0;-40.050003;21.252924;-6.163371;3.0398636;1020.74774;-;-;51.52506211;-0.1334568;1.9700000286102295
1531048426406;-;-;0.40715334;1.0346485;9.699829;-0.0066168075;-0.07664302;-0.0306104;-16.050001;38.100002;-38.850002;21.277884;-6.2196836;3.0754476;1020.74774;-;-;51.52506211;-0.1334568;1.9700000286102295
1531048426416;-;-;0.39757326;1.0059083;9.800421;-0.0066168075;-0.07983881;-0.025284078;-16.050001;38.100002;-38.850002;21.277884;-6.2196836;3.0754476;1020.7499;-;-;51.52506211;-0.1334568;1.9700000286102295
1531048426427;-;-;0.4406836;1.0011182;9.910591;0.0013726761;-0.0697188;-0.019957755;-15.750001;36.300003;-38.4;21.314249;-6.246798;3.1358712;1020.7499;-;-;51.52506211;-0.1334568;1.9700000286102295
1531048426437;-;-;0.36883304;1.0633887;9.977652;0.0056337337;-0.06599037;-0.019425122;-15.750001;36.300003;-38.4;21.314249;-6.246798;3.1358712;1020.7499;-;-;51.52506211;-0.1334568;1.9700000286102295
1531048426447;-;-;0.364043;0.977168;9.934542;0.01415585;-0.060664054;-0.015164064;-15.900001;36.9;-38.25;21.345175;-6.2431793;3.2161808;1020.7499;-;-;51.52506211;-0.1334568;1.9700000286102295
1531048426458;-;-;0.5556446;1.0681788;9.920172;0.020014804;-0.06226195;-0.022620916;-15.900001;36.9;-38.25;21.345175;-6.2431793;3.2161808;1020.7499;-;-;51.52506211;-0.1334568;1.9700000286102295
1531048426468;-;-;0.5556446;1.1208692;9.848321;0.011492689;-0.06865354;-0.026349341;-16.800001;38.100002;-39.600002;21.364925;-6.249007;3.2916248;1020.7499;-;-;51.52506211;-0.1334568;1.9700000286102295
1531048426478;-;-;0.5556446;1.096919;9.843531;0.008829528;-0.061196685;-0.036469355;-16.800001;38.100002;-39.600002;21.364925;-6.249007;3.2916248;1020.7499;-;-;51.52506211;-0.1334568;1.9700000286102295
1531048426488;-;-;0.613125;1.0585986;9.968072;0.013090585;-0.027108222;-0.0306104;-17.25;36.45;-39.0;21.386274;-6.2675276;3.360745;1020.7499;-;-;51.52506211;-0.1334568;1.9700000286102295
1531048426498;-;-;0.5556446;1.092129;9.963282;0.006698998;-0.013792417;-0.041263044;-17.25;36.45;-39.0;21.386274;-6.2675276;3.360745;1020.7499;-;-;51.52506211;-0.1334568;1.9700000286102295
1531048426508;-;-;0.613125;1.092129;9.872271;3.0741162E-4;0.02828553;-0.047121998;-17.25;38.550003;-40.2;21.42883;-6.2853227;3.4273472;1020.7515;-;-;51.52506211;-0.1334568;1.9700000286102295
1531048426519;-;-;0.5939649;1.1975098;9.77647;-0.01886735;0.038938172;-0.052980952;-17.25;38.550003;-40.2;21.42883;-6.2853227;3.4273472;1020.7515;-;-;51.52506211;-0.1334568;1.9700000286102295
1531048426529;-;-;0.45984375;1.092129;9.85311;-0.04816212;0.03840554;-0.052980952;-17.85;38.7;-39.600002;21.473185;-6.2998967;3.4439573;1020.7515;-;-;51.52506211;-0.1334568;1.9700000286102295
1531048426539;-;-;0.43110353;1.1448194;9.877061;-0.06147793;0.040003438;-0.056176748;-17.550001;38.4;-38.100002;21.524916;-6.2960443;3.401214;1020.7515;-;-;51.52506211;-0.1334568;1.9700000286102295
1531048426549;-;-;0.42152345;1.1496094;9.992022;-0.063075826;0.009643401;-0.04286094;-17.550001;38.4;-38.100002;21.524916;-6.2960443;3.401214;1020.7515;-;-;51.52506211;-0.1334568;1.9700000286102295
1531048426560;-;-;0.4167334;1.0490186;10.174044;-0.050825283;-0.0127271535;-0.04339357;-15.750001;38.100002;-40.5;21.581701;-6.2369456;3.349198;1020.7515;-;-;51.52506211;-0.1334568;1.9700000286102295
1531048426569;-;-;0.39278322;1.0681788;10.332115;0.006166366;-0.044152454;-0.029545136;-15.750001;38.100002;-40.5;21.581701;-6.2369456;3.349198;1020.7515;-;-;51.52506211;-0.1334568;1.9700000286102295
1531048426579;-;-;0.4981641;1.0490186;10.217154;0.036526404;-0.056402996;-0.019425122;-18.300001;35.850002;-39.9;21.627125;-6.1766005;3.3426123;1020.7515;-;-;51.52506211;-0.1334568;1.9700000286102295
1531048426589;-;-;0.5412744;1.1352394;9.939331;0.0695496;-0.06652301;-0.027947238;-18.300001;35.850002;-39.9;21.627125;-6.1766005;3.3426123;1020.7515;-;-;51.52506211;-0.1334568;1.9700000286102295
1531048426599;-;-;0.50774413;1.2310401;9.968072;0.07487592;-0.051609304;-0.025284078;-16.5;37.050003;-38.100002;21.663097;-6.1998925;3.3951008;1020.7515;-;-;51.52506211;-0.1334568;1.9700000286102295
1531048426609;-;-;0.5604346;1.1256592;9.81958;0.066353805;-0.02391243;-0.029012503;-16.5;37.050003;-38.100002;21.663097;-6.1998925;3.3951008;1020.752;-;-;51.52506211;-0.1334568;1.9700000286102295
1531048426619;-;-;0.613125;1.101709;9.7812605;0.048244312;-0.0010092438;-0.031143032;-16.5;37.350002;-38.4;21.702421;-6.2836647;3.4582262;1020.752;-;-;51.52506211;-0.1334568;1.9700000286102295
1531048426630;-;-;0.6658155;1.2022998;9.685459;0.0077642626;0.041068703;-0.0306104;-16.5;37.350002;-38.4;21.702421;-6.2836647;3.4582262;1020.752;-;-;51.52506211;-0.1334568;1.9700000286102295
1531048426640;-;-;0.62749517;1.1831397;9.80521;-0.00714944;0.06770031;-0.041795675;-16.050001;36.0;-39.600002;21.736689;-6.3546333;3.4714541;1020.752;-;-;51.52506211;-0.1334568;1.9700000286102295
1531048426650;-;-;0.5125342;1.101709;9.972861;-0.026324201;0.07249401;-0.041263044;-16.050001;36.0;-39.600002;21.736689;-6.3546333;3.4714541;1020.752;-;-;51.52506211;-0.1334568;1.9700000286102295
1531048426660;-;-;0.39278322;1.0681788;10.135723;-0.020465245;0.0591782;-0.03806725;-15.450001;36.600002;-38.850002;21.771574;-6.368506;3.4178598;1020.752;-;-;51.52506211;-0.1334568;1.9700000286102295
1531048426670;-;-;0.39278322;1.0633887;10.279425;0.018949538;0.027220264;-0.034338824;-15.450001;36.600002;-38.850002;21.771574;-6.368506;3.4178598;1020.752;-;-;51.52506211;-0.1334568;1.9700000286102295
1531048426680;-;-;0.47900394;1.101709;10.197993;0.041852724;0.029350795;-0.031143032;-16.650002;36.9;-39.45;21.81241;-6.3464704;3.3351777;1020.752;-;-;51.52506211;-0.1334568;1.9700000286102295
1531048426691;-;-;0.45505372;1.1879297;10.015972;0.056233793;0.020296047;-0.02102302;-16.650002;36.9;-39.45;21.81241;-6.3464704;3.3351777;1020.752;-;-;51.52506211;-0.1334568;1.9700000286102295
1531048426701;-;-;0.4981641;1.1304493;9.915381;0.051440105;0.033611853;-0.024218813;-16.35;35.4;-39.45;21.84491;-6.368661;3.2958183;1020.752;-;-;51.52506211;-0.1334568;1.9700000286102295
1531048426711;-;-;0.50774413;1.1975098;9.843531;0.026939023;0.04532976;-0.022088284;-16.35;35.4;-39.45;21.84491;-6.368661;3.2958183;1020.74646;-;-;51.52506211;-0.1334568;1.9700000286102295
1531048426721;-;-;0.46463382;1.096919;9.70941;0.0024379406;0.049058188;-0.02102302;-16.5;38.100002;-38.100002;21.867634;-6.430203;3.2607276;1020.74646;-;-;51.52506211;-0.1334568;1.9700000286102295
1531048426731;-;-;0.43589357;1.1208692;9.896221;-0.0146062905;0.022959206;-0.022088284;-16.5;38.100002;-38.100002;21.867634;-6.430203;3.2607276;1020.74646;-;-;51.52506211;-0.1334568;1.9700000286102295
1531048426741;-;-;0.41194338;1.096919;9.896221;-0.0023550629;0.019768048;-0.01674344;-15.450001;35.7;-40.5;21.884407;-6.4608965;3.2041082;1020.74646;-;-;51.52506211;-0.1334568;1.9700000286102295
1531048426752;-;-;0.39278322;1.0873389;10.030342;0.015221801;-0.0015372408;-0.0034276345;-15.450001;35.7;-40.5;21.884407;-6.4608965;3.2041082;1020.74646;-;-;51.52506211;-0.1334568;1.9700000286102295
1531048426761;-;-;0.36883304;1.0633887;10.035132;0.035461824;0.0016585526;-0.004492899;-15.900001;35.100002;-39.0;21.8974;-6.457607;3.1684253;1020.74646;-;-;51.52506211;-0.1334568;1.9700000286102295
1531048426771;-;-;0.3544629;1.101709;9.905801;0.057832375;0.0016585526;0.0040292167;-15.900001;35.100002;-39.0;21.8974;-6.457607;3.1684253;1020.74646;-;-;51.52506211;-0.1334568;1.9700000286102295
1531048426781;-;-;0.43110353;1.0442286;9.81958;0.04877763;-0.002069873;0.008822907;-15.900001;38.25;-40.2;21.901382;-6.4767427;3.1611826;1020.74646;-;-;51.52506211;-0.1334568;1.9700000286102295
1531048426791;-;-;0.48379397;1.0873389;9.69504;0.03759235;-0.019646738;0.0093555385;-15.900001;38.25;-40.2;21.901382;-6.4767427;3.1611826;1020.74646;-;-;51.52506211;-0.1334568;1.9700000286102295
1531048426802;-;-;0.45505372;1.1064991;9.6615095;0.009362847;-0.025505692;-2.3184111E-4;-16.800001;36.300003;-38.4;21.89536;-6.5335655;3.1646702;1020.74646;-;-;51.52506211;-0.1334568;1.9700000286102295
1531048426812;-;-;0.4981641;1.1352394;9.81;-0.014605604;-0.016450943;-0.02366766;-16.800001;36.300003;-38.4;21.89536;-6.5335655;3.1646702;1020.7433;-;-;51.52506211;-0.1334568;1.9700000286102295
1531048426822;-;-;0.46942386;1.1496094;9.910591;-0.021529824;-0.024440426;-0.011949751;-17.1;37.050003;-39.300003;21.892815;-6.570347;3.1872861;1020.7433;-;-;51.52506211;-0.1334568;1.9700000286102295
1531048426832;-;-;0.4742139;1.0729688;9.905801;-0.008214017;-0.02497306;-0.013547647;-17.1;37.050003;-39.300003;21.892815;-6.570347;3.1872861;1020.7433;-;-;51.52506211;-0.1334568;1.9700000286102295
1531048426842;-;-;0.4742139;1.101709;9.934542;8.407304E-4;-0.014853047;-0.009286589;-16.35;36.9;-39.45;21.908068;-6.553016;3.2097507;1020.7433;-;-;51.52506211;-0.1334568;1.9700000286102295
1531048426852;-;-;0.4742139;1.0394385;9.72857;0.004569156;-0.019646738;-0.008753957;-16.35;36.9;-39.45;21.908068;-6.553016;3.2097507;1020.7433;-;-;51.52506211;-0.1334568;1.9700000286102295
1531048426863;-;-;0.43110353;1.1208692;9.637559;-0.009811914;-0.026038323;-0.00236237;-17.85;37.65;-38.850002;21.925764;-6.541644;3.2358565;1020.7433;-;-;51.52506211;-0.1334568;1.9700000286102295
1531048426873;-;-;0.488584;0.8430469;9.924961;-0.01833403;-0.019114105;-0.00715606;-17.85;37.65;-38.850002;21.925764;-6.541644;3.2358565;1020.7433;-;-;51.52506211;-0.1334568;1.9700000286102295
1531048426883;-;-;0.42152345;1.0873389;10.269844;0.09724716;-0.035625704;-0.017276071;-16.5;37.350002;-38.4;21.93724;-6.5461187;3.2634468;1020.7433;-;-;51.52506211;-0.1334568;1.9700000286102295
1531048426893;-;-;0.48379397;1.1352394;9.81958;0.08020293;-0.096345775;-0.00236237;-16.5;37.350002;-38.4;21.93724;-6.5461187;3.2634468;1020.7433;-;-;51.52506211;-0.1334568;1.9700000286102295
1531048426903;-;-;0.48379397;1.21188;9.541759;0.039722882;-0.06811627;-0.0028950023;-17.550001;36.600002;-40.95;21.945446;-6.551032;3.2886822;1020.74384;-;-;51.52506211;-0.1334568;1.9700000286102295
1531048426913;-;-;0.57001466;1.2454102;9.570498;-0.023660352;0.03681228;-0.0055581634;-17.550001;36.600002;-40.95;21.945446;-6.551032;3.2886822;1020.74384;-;-;51.52506211;-0.1334568;1.9700000286102295
1531048426924;-;-;0.5604346;1.0442286;9.987232;-0.055618286;0.010180668;-0.021537129;-16.5;36.600002;-38.4;21.96066;-6.646669;3.3726413;1020.74384;-;-;51.52506211;-0.1334568;1.9700000286102295
1531048426933;-;-;0.5364844;1.092129;10.039923;-0.045498274;0.0037890815;-0.034852933;-16.5;36.600002;-38.4;21.96066;-6.646669;3.3726413;1020.74384;-;-;51.52506211;-0.1334568;1.9700000286102295
1531048426943;-;-;0.57001466;1.1304493;10.188414;-0.017268766;0.01763752;-0.023135025;-17.25;37.800003;-39.45;21.967958;-6.6248546;3.360846;1020.74384;-;-;51.52506211;-0.1334568;1.9700000286102295
1531048426954;-;-;0.48379397;1.1783496;10.241104;0.018417595;0.008050139;-0.009286589;-17.25;37.800003;-39.45;21.967958;-6.6248546;3.360846;1020.74384;-;-;51.52506211;-0.1334568;1.9700000286102295
1531048426963;-;-;0.53169435;1.1687696;10.092612;0.03705972;-0.017516207;-0.00236237;-17.550001;36.300003;-38.4;22.005505;-6.57382;3.3462002;1020.74384;-;-;51.52506211;-0.1334568;1.9700000286102295
1531048426974;-;-;0.4742139;1.1256592;9.944121;0.054103952;-0.016450943;0.004561849;-17.550001;36.300003;-38.4;22.005505;-6.57382;3.3462002;1020.74384;-;-;51.52506211;-0.1334568;1.9700000286102295
1531048426984;-;-;0.5364844;1.092129;9.862691;0.022678653;-0.02976675;0.0040292167;-15.6;37.800003;-39.9;22.022957;-6.581848;3.332527;1020.74384;-;-;51.52506211;-0.1334568;1.9700000286102295
1531048426994;-;-;0.64186525;1.1400293;9.78605;-0.015670868;6.0655875E-5;-0.0055581634;-15.6;37.800003;-39.9;22.022957;-6.581848;3.332527;1020.74384;-;-;51.52506211;-0.1334568;1.9700000286102295
1531048427005;-;-;0.6706055;1.2310401;9.7812605;-0.035378262;0.03042069;-0.017276071;-17.550001;38.100002;-38.4;22.029497;-6.634183;3.351502;1020.74115;-;-;51.52506211;-0.1334568;1.9700000286102295
1531048427014;-;-;0.5939649;1.1591895;10.015972;-0.062542506;0.062378623;-0.032722406;-17.550001;38.100002;-38.4;22.029497;-6.634183;3.351502;1020.74115;-;-;51.52506211;-0.1334568;1.9700000286102295
1531048427024;-;-;0.49337405;1.1639795;10.044712;-0.05135723;0.070900746;-0.025265556;-15.900001;37.5;-38.7;22.034662;-6.6310124;3.360537;1020.74115;-;-;51.52506211;-0.1334568;1.9700000286102295
1531048427035;-;-;0.5029541;1.1208692;10.044712;-0.027388778;0.06823758;-0.017808706;-15.900001;37.5;-38.7;22.034662;-6.6310124;3.360537;1020.74115;-;-;51.52506211;-0.1334568;1.9700000286102295
1531048427044;-;-;0.52690434;1.1783496;10.178833;0.008830214;0.05385651;-0.019406602;-16.5;36.600002;-39.300003;22.057064;-6.569009;3.3004496;1020.74115;-;-;51.52506211;-0.1334568;1.9700000286102295
1531048427054;-;-;0.4263135;1.1543995;10.116563;0.06848502;0.02243121;-0.0140802795;-16.5;36.600002;-39.300003;22.057064;-6.569009;3.3004496;1020.74115;-;-;51.52506211;-0.1334568;1.9700000286102295
1531048427064;-;-;0.46463382;0.97237796;9.877061;0.07540924;0.006452242;0.0050944807;-16.95;35.4;-41.100002;22.06442;-6.5301294;3.219096;1020.74115;-;-;51.52506211;-0.1334568;1.9700000286102295
1531048427098;-;-;0.56522465;1.1735597;9.642349;0.018950226;0.02935543;-0.004492899;-16.5;37.65;-41.25;22.074654;-6.592023;3.180716;1020.74115;-;-;51.52506211;-0.1334568;1.9700000286102295
1531048427101;-;-;0.5412744;1.1352394;9.690249;0.004569156;0.037877545;-0.009819221;-16.5;37.65;-41.25;22.062412;-6.6719966;3.162184;1020.7401;-;-;51.52506211;-0.1334568;1.9700000286102295
1531048427101;-;-;0.5412744;1.1352394;9.690249;0.004569156;0.037877545;-0.009819221;-16.5;37.65;-41.25;22.062412;-6.6719966;3.162184;1020.7401;-;-;51.52506211;-0.1334568;1.9700000286102295
1531048427132;-;-;0.45984375;1.1304493;10.073453;-0.00874665;0.05119335;-0.012482382;-18.300001;37.5;-40.2;22.059376;-6.7031207;3.1243272;1020.7401;-;-;51.52506211;-0.1334568;1.9700000286102295
1531048427119;-;-;0.45026368;1.1400293;9.862691;-0.021529824;0.057052303;-0.023135025;-18.300001;37.5;-40.2;22.059376;-6.7031207;3.1243272;1020.7401;-;-;51.52506211;-0.1334568;1.9700000286102295
1531048427131;-;-;0.45984375;1.1304493;10.073453;-0.00874665;0.05119335;-0.012482382;-18.300001;37.5;-40.2;22.059376;-6.7031207;3.1243272;1020.7401;-;-;51.52506211;-0.1334568;1.9700000286102295
1531048427139;-;-;0.43589357;1.1927198;9.968072;0.004036524;0.047997557;-0.018341336;-18.150002;38.100002;-41.25;22.065844;-6.684474;3.0646877;1020.7401;-;-;51.52506211;-0.1334568;1.9700000286102295
1531048427148;-;-;0.4023633;1.1160791;9.924961;0.013091272;0.03681228;-0.017276071;-18.150002;38.100002;-41.25;22.065844;-6.684474;3.0646877;1020.7401;-;-;51.52506211;-0.1334568;1.9700000286102295
1531048427180;-;-;0.44547364;1.1639795;9.83874;-0.018866662;0.035214383;-0.019939233;-18.150002;38.100002;-40.95;22.077848;-6.6789947;3.0090885;1020.7401;-;-;51.52506211;-0.1334568;1.9700000286102295
1531048427191;-;-;0.32093263;1.1352394;10.030342;-0.017268766;0.002723817;-0.026863452;-18.150002;38.100002;-40.95;22.096018;-6.69359;2.9681113;1020.7401;-;-;51.52506211;-0.1334568;1.9700000286102295
1531048427182;-;-;0.42152345;1.2166699;9.867481;-0.014072971;0.027757531;-0.015145543;-18.150002;38.100002;-40.95;22.096018;-6.69359;2.9681113;1020.7401;-;-;51.52506211;-0.1334568;1.9700000286102295
1531048427183;-;-;0.42152345;1.2166699;9.867481;-0.014072971;0.027757531;-0.015145543;-18.150002;38.100002;-40.95;22.096018;-6.69359;2.9681113;1020.7401;-;-;51.52506211;-0.1334568;1.9700000286102295
1531048427197;-;-;0.3544629;1.1352394;10.039923;-0.002887695;0.0037890815;-0.022069763;-18.150002;38.100002;-40.95;22.096018;-6.69359;2.9681113;1020.7401;-;-;51.52506211;-0.1334568;1.9700000286102295
1531048427207;-;-;0.3065625;1.1304493;10.025552;0.0024386272;-0.002069873;-0.013015014;-18.6;38.7;-42.45;22.111544;-6.684821;2.9208572;1020.7399;-;-;51.52506211;-0.1334568;1.9700000286102295
1531048427217;-;-;0.33530274;1.1208692;9.8866415;0.013091272;0.0053869784;-0.008753957;-18.6;38.7;-42.45;22.111544;-6.684821;2.9208572;1020.7399;-;-;51.52506211;-0.1334568;1.9700000286102295
1531048427228;-;-;0.42152345;1.1687696;9.905801;-0.0055508562;0.0091154035;0.010953436;-19.35;36.45;-39.9;22.13394;-6.6757836;2.90945;1020.7399;-;-;51.52506211;-0.1334568;1.9700000286102295
1531048427240;-;-;0.45026368;1.1496094;9.934542;-0.02099719;0.018170152;0.0034965845;-18.75;37.5;-41.100002;22.13394;-6.6757836;2.90945;1020.7399;-;-;51.52506211;-0.1334568;1.9700000286102295
1531048427250;-;-;0.48379397;1.1160791;9.829161;-0.034845255;0.038412705;-0.00767859;-18.75;37.5;-41.100002;22.134785;-6.685815;2.905575;1020.7399;-;-;51.52506211;-0.1334568;1.9700000286102295
1531048427261;-;-;0.43589357;1.0681788;9.829161;-0.036975782;0.04693482;-0.008743854;-20.25;37.350002;-40.95;22.127335;-6.668957;2.8888688;1020.7399;-;-;51.52506211;-0.1334568;1.9700000286102295
1531048427275;-;-;0.32093263;1.0825489;9.958491;-0.016735759;0.028292693;-0.010341751;-20.25;37.350002;-40.95;22.127335;-6.668957;2.8888688;1020.7399;-;-;51.52506211;-0.1334568;1.9700000286102295
1531048427282;-;-;0.34488282;1.0873389;9.968072;-0.016735759;0.028292693;-0.010341751;-18.0;38.25;-39.9;22.13407;-6.6328697;2.8399487;1020.7399;-;-;51.52506211;-0.1334568;1.9700000286102295
1531048427292;-;-;0.34009278;1.096919;9.877061;0.0189506;0.004324242;-0.0018196355;-18.0;38.25;-39.9;22.13407;-6.6328697;2.8399487;1020.7399;-;-;51.52506211;-0.1334568;1.9700000286102295
1531048427301;-;-;0.37362307;1.0729688;9.934542;0.025342187;0.0059221387;0.006169848;-18.75;37.5;-39.9;22.147312;-6.6055875;2.8065934;1020.7399;-;-;51.52506211;-0.1334568;1.9700000286102295
1531048427311;-;-;0.3784131;1.1064991;9.7142;0.015222175;0.006987403;0.00670248;-18.75;37.5;-39.9;22.147312;-6.6055875;2.8065934;1020.7367;-;-;51.52506211;-0.1334568;1.9700000286102295
1531048427321;-;-;0.46942386;1.1160791;9.623189;0.009363221;0.012846357;0.0051045828;-18.300001;37.800003;-41.550003;22.148376;-6.6273937;2.7920327;1020.7367;-;-;51.52506211;-0.1334568;1.9700000286102295
1531048427332;-;-;0.42152345;1.1735597;9.70941;-0.052954752;0.0053895065;-0.007145958;-18.300001;37.800003;-41.550003;22.148376;-6.6273937;2.7920327;1020.7367;-;-;51.52506211;-0.1334568;1.9700000286102295
1531048427342;-;-;0.45026368;1.1735597;9.800421;-0.07426004;0.0064547705;-0.020994397;-17.25;38.550003;-39.45;22.141026;-6.646149;2.7858174;1020.7367;-;-;51.52506211;-0.1334568;1.9700000286102295
1531048427352;-;-;0.39757326;1.0729688;10.164463;-0.08544532;-0.0057957703;-0.022592293;-17.25;38.550003;-39.45;22.141026;-6.646149;2.7858174;1020.7367;-;-;51.52506211;-0.1334568;1.9700000286102295
1531048427363;-;-;0.3305127;1.1543995;10.183623;-0.07212952;-0.006861035;-0.026320718;-18.900002;38.100002;-39.300003;22.150011;-6.5892134;2.7665513;1020.7367;-;-;51.52506211;-0.1334568;1.9700000286102295
1531048427374;-;-;0.34488282;1.1160791;10.111773;-0.04123684;-0.016448416;-0.018863866;-18.900002;38.100002;-39.300003;22.150011;-6.5892134;2.7665513;1020.7367;-;-;51.52506211;-0.1334568;1.9700000286102295
1531048427384;-;-;0.38320315;1.0442286;10.073453;-0.027388403;-0.03189475;-0.016733337;-18.300001;38.25;-40.2;22.178085;-6.4956927;2.7678847;1020.7367;-;-;51.52506211;-0.1334568;1.9700000286102295
1531048427394;-;-;0.4742139;1.1352394;10.001602;-0.0076810103;-0.04361266;-0.013537545;-18.300001;38.25;-40.2;22.178085;-6.4956927;2.7678847;1020.7367;-;-;51.52506211;-0.1334568;1.9700000286102295
1531048427404;-;-;0.39757326;1.0777588;9.872271;-0.0028873207;-0.03455791;-0.00767859;-18.75;38.550003;-41.100002;22.206657;-6.4418597;2.7910578;1020.7323;-;-;51.52506211;-0.1334568;1.9700000286102295
1531048427415;-;-;0.4167334;1.1496094;9.766891;-0.003952585;0.0011284486;-0.005548061;-18.75;38.550003;-41.100002;22.206657;-6.4418597;2.7910578;1020.7323;-;-;51.52506211;-0.1334568;1.9700000286102295
1531048427425;-;-;0.42152345;1.1783496;9.77647;-0.01460523;0.030955855;-0.009276487;-19.2;38.4;-41.7;22.232756;-6.4341507;2.8311877;1020.7323;-;-;51.52506211;-0.1334568;1.9700000286102295
1531048427435;-;-;0.42152345;1.1831397;9.7812605;-0.018866288;0.041608498;-0.008743854;-19.2;38.4;-41.7;22.232756;-6.4341507;2.8311877;1020.7323;-;-;51.52506211;-0.1334568;1.9700000286102295
1531048427447;-;-;0.38320315;1.1927198;9.929751;-0.03857368;0.04693482;-0.015135441;-19.2;37.65;-40.95;22.240297;-6.4295535;2.835644;1020.7323;-;-;51.52506211;-0.1334568;1.9700000286102295
1531048427456;-;-;0.4406836;1.1304493;9.924961;-0.035377886;0.04427166;-0.005015429;-19.2;37.65;-40.95;22.240297;-6.4295535;2.835644;1020.7323;-;-;51.52506211;-0.1334568;1.9700000286102295
1531048427467;-;-;0.39278322;1.1352394;10.020762;-0.03377999;0.025629532;-0.014602809;-18.6;38.100002;-40.5;22.244133;-6.405248;2.7923703;1020.7323;-;-;51.52506211;-0.1334568;1.9700000286102295
1531048427480;-;-;0.39278322;1.2070899;10.087823;-0.03377999;0.028825324;-0.010874383;-18.900002;37.65;-39.600002;22.246021;-6.367214;2.7401626;1020.7323;-;-;51.52506211;-0.1334568;1.9700000286102295
1531048427492;-;-;0.31135255;1.0250684;10.054293;-0.008213643;0.03681481;-2.2173882E-4;-18.900002;37.65;-39.600002;22.246021;-6.367214;2.7401626;1020.7323;-;-;51.52506211;-0.1334568;1.9700000286102295
1531048427510;-;-;0.28261232;1.0154883;9.953702;0.0040368983;0.02296637;0.015757227;-19.2;39.45;-41.25;22.253736;-6.3291783;2.7001176;1020.73645;-;-;51.52506211;-0.1334568;1.9700000286102295
1531048427521;-;-;0.26345217;1.096919;9.992022;-0.0066157463;0.021901105;-0.011407016;-19.35;38.25;-39.9;22.25616;-6.3150067;2.6660094;1020.73645;-;-;51.52506211;-0.1334568;1.9700000286102295
1531048427501;-;-;0.26345217;1.0442286;10.083033;-0.003419953;0.028825324;-0.009276487;-19.2;39.45;-41.25;22.253736;-6.3291783;2.7001176;1020.7323;-;-;51.52506211;-0.1334568;1.9700000286102295
1531048427531;-;-;0.34488282;1.1112891;9.953702;-0.014072597;0.042141132;-0.009809119;-19.35;38.25;-39.9;22.25616;-6.3150067;2.6660094;1020.73645;-;-;51.52506211;-0.1334568;1.9700000286102295
1531048427541;-;-;0.3305127;1.1448194;9.944121;-0.015670493;0.042673763;-0.02419019;-19.050001;38.550003;-41.550003;22.251968;-6.3079157;2.640706;1020.73645;-;-;51.52506211;-0.1334568;1.9700000286102295
1531048427552;-;-;0.27303225;1.101709;10.039923;-0.017801024;0.050130613;-0.023124924;-19.050001;38.550003;-41.550003;22.251968;-6.3079157;2.640706;1020.73645;-;-;51.52506211;-0.1334568;1.9700000286102295
1531048427562;-;-;0.33530274;1.0394385;10.015972;-0.009278907;0.04427166;-0.028451247;-18.6;37.050003;-39.600002;22.263227;-6.283771;2.6006382;1020.73645;-;-;51.52506211;-0.1334568;1.9700000286102295
1531048427572;-;-;0.30177248;1.1352394;9.910591;0.0104284845;0.038412705;-0.019929131;-18.6;37.050003;-39.600002;22.263227;-6.283771;2.6006382;1020.73645;-;-;51.52506211;-0.1334568;1.9700000286102295
1531048427583;-;-;0.32093263;1.1687696;9.896221;0.008830588;0.033619016;-0.018863866;-17.7;38.25;-40.2;22.288061;-6.2596273;2.5461829;1020.73645;-;-;51.52506211;-0.1334568;1.9700000286102295
1531048427593;-;-;0.34488282;1.0777588;9.7812605;-7.567918E-4;0.03255375;-0.017798603;-17.7;38.25;-40.2;22.288061;-6.2596273;2.5461829;1020.73645;-;-;51.52506211;-0.1334568;1.9700000286102295
1531048427603;-;-;0.35925296;1.1256592;9.881851;-0.0050178496;0.023499;-0.014602809;-17.7;37.2;-40.65;22.305975;-6.266385;2.496805;1020.7409;-;-;51.52506211;-0.1334568;1.9700000286102295
1531048427613;-;-;0.34967285;1.0729688;9.968072;-0.0028873207;0.009650565;-0.009276487;-17.7;37.2;-40.65;22.305975;-6.266385;2.496805;1020.7409;-;-;51.52506211;-0.1334568;1.9700000286102295
1531048427624;-;-;0.34488282;1.0777588;9.953702;-0.0076810103;0.0059221387;-0.013537545;-18.900002;37.65;-40.050003;22.317562;-6.2679954;2.4588342;1020.7409;-;-;51.52506211;-0.1334568;1.9700000286102295
1531048427634;-;-;0.42152345;1.1064991;9.982442;3.0847263E-4;0.008052668;-0.030049143;-18.900002;37.65;-40.050003;22.317562;-6.2679954;2.4588342;1020.7409;-;-;51.52506211;-0.1334568;1.9700000286102295
1531048427644;-;-;0.37362307;1.1304493;9.948912;0.0013737371;0.0048568742;-0.02419019;-19.5;39.0;-38.4;22.325058;-6.260631;2.4427238;1020.7409;-;-;51.52506211;-0.1334568;1.9700000286102295
1531048427654;-;-;0.32093263;1.1208692;9.81958;-0.011942068;0.011781094;-0.035908096;-19.5;39.0;-38.4;22.325058;-6.260631;2.4427238;1020.7409;-;-;51.52506211;-0.1334568;1.9700000286102295
1531048427664;-;-;0.364043;1.0394385;9.920172;-0.025790507;0.007520036;-0.035908096;-18.6;38.7;-42.15;22.347172;-6.2615414;2.42912;1020.7409;-;-;51.52506211;-0.1334568;1.9700000286102295
1531048427674;-;-;0.37362307;1.0681788;9.992022;-0.03324736;0.019237943;-0.032712303;-18.6;38.7;-42.15;22.347172;-6.2615414;2.42912;1020.7409;-;-;51.52506211;-0.1334568;1.9700000286102295
1531048427685;-;-;0.43589357;1.1160791;9.929751;-0.025257874;0.036282178;-0.027918614;-18.300001;39.300003;-39.45;22.380861;-6.2531385;2.4088109;1020.7409;-;-;51.52506211;-0.1334568;1.9700000286102295
1531048427695;-;-;0.43110353;1.092129;9.982442;-0.025257874;0.03681481;-0.030049143;-18.300001;39.300003;-39.45;22.380861;-6.2531385;2.4088109;1020.7409;-;-;51.52506211;-0.1334568;1.9700000286102295
1531048427705;-;-;0.44547364;1.0825489;10.001602;-0.020464184;0.037880074;-0.035908096;-19.2;38.4;-41.7;22.413752;-6.222988;2.386384;1020.74506;-;-;51.52506211;-0.1334568;1.9700000286102295
1531048427715;-;-;0.4023633;1.1112891;9.934542;-0.015137862;0.02989059;-0.032179672;-19.2;38.4;-41.7;22.413752;-6.222988;2.386384;1020.74506;-;-;51.52506211;-0.1334568;1.9700000286102295
1531048427726;-;-;0.3879932;1.0777588;9.987232;8.411049E-4;0.020303208;-0.03484283;-18.150002;39.45;-41.25;22.449106;-6.195929;2.3376417;1020.74506;-;-;51.52506211;-0.1334568;1.9700000286102295
1531048427736;-;-;0.41194338;1.0250684;10.174044;-0.008213643;0.0037916098;-0.03484283;-18.150002;39.45;-41.25;22.449106;-6.195929;2.3376417;1020.74506;-;-;51.52506211;-0.1334568;1.9700000286102295
1531048427746;-;-;0.4263135;1.0633887;10.106983;-0.005017756;-0.0047298735;-0.03057925;-20.400002;38.550003;-40.65;22.48779;-6.1755056;2.2972715;1020.74506;-;-;51.52506211;-0.1334568;1.9700000286102295
1531048427756;-;-;0.4406836;1.0825489;10.039923;0.008830681;-0.0025993448;-0.05188454;-20.400002;38.550003;-40.65;22.48779;-6.1755056;2.2972715;1020.74506;-;-;51.52506211;-0.1334568;1.9700000286102295
1531048427766;-;-;0.3065625;1.0490186;10.092612;0.0146896355;-0.0010014481;-0.045492955;-18.6;39.0;-41.25;22.527485;-6.168098;2.2802076;1020.74506;-;-;51.52506211;-0.1334568;1.9700000286102295
1531048427777;-;-;0.364043;1.0729688;10.030342;0.023211751;-0.015382518;-0.054547697;-18.6;39.0;-41.25;22.527485;-6.168098;2.2802076;1020.74506;-;-;51.52506211;-0.1334568;1.9700000286102295
1531048427786;-;-;0.27303225;1.0777588;9.901011;0.024809647;-0.018578311;-0.0561456;-17.550001;38.4;-40.050003;22.575523;-6.1790795;2.2752066;1020.74506;-;-;51.52506211;-0.1334568;1.9700000286102295
1531048427796;-;-;0.26345217;1.0538087;10.049502;0.016820164;-0.018045679;-0.061471917;-17.550001;38.4;-40.050003;22.575523;-6.1790795;2.2752066;1020.74506;-;-;51.52506211;-0.1334568;1.9700000286102295
1531048427807;-;-;0.17244141;1.0729688;10.011182;0.023211751;-0.015382518;-0.05880876;-18.6;37.65;-40.95;22.630997;-6.2069716;2.2818356;1020.7415;-;-;51.52506211;-0.1334568;1.9700000286102295
1531048427816;-;-;0.10538086;1.0633887;10.039923;0.018950693;-0.03029622;-0.065200344;-18.6;37.65;-40.95;22.630997;-6.2069716;2.2818356;1020.7415;-;-;51.52506211;-0.1334568;1.9700000286102295
1531048427826;-;-;0.014370117;1.0346485;10.183623;0.027472809;0.0027269775;-0.04602558;-18.75;39.300003;-40.65;22.69923;-6.2396245;2.2968485;1020.7415;-;-;51.52506211;-0.1334568;1.9700000286102295
1531048427836;-;-;0.18681154;1.0250684;10.140513;0.03013597;-0.019110944;-0.05880876;-18.75;39.300003;-40.65;22.69923;-6.2396245;2.2968485;1020.7415;-;-;51.52506211;-0.1334568;1.9700000286102295
1531048427846;-;-;0.100590825;1.0394385;10.154883;0.03652756;-0.009523563;-0.048156112;-20.1;37.5;-41.850002;22.764904;-6.268508;2.310617;1020.7415;-;-;51.52506211;-0.1334568;1.9700000286102295
1531048427857;-;-;0.16765137;1.0394385;10.116563;0.042386513;0.0027269775;-0.06093929;-20.1;37.5;-41.850002;22.764904;-6.268508;2.310617;1020.7415;-;-;51.52506211;-0.1334568;1.9700000286102295
1531048427867;-;-;0.2921924;1.1064991;10.015972;0.04664757;0.0027269775;-0.061471917;-20.400002;37.800003;-41.550003;22.818901;-6.307694;2.320027;1020.7415;-;-;51.52506211;-0.1334568;1.9700000286102295
1531048427878;-;-;0.27303225;1.0873389;9.987232;0.04931073;0.0021943452;-0.07532036;-19.050001;37.800003;-41.850002;22.818901;-6.307694;2.320027;1020.7415;-;-;51.52506211;-0.1334568;1.9700000286102295
1531048427887;-;-;0.22513184;1.1064991;9.915381;0.05090863;-0.016980415;-0.09183196;-19.050001;37.800003;-41.850002;22.882055;-6.355763;2.31595;1020.7415;-;-;51.52506211;-0.1334568;1.9700000286102295
1531048427897;-;-;0.23471193;1.0777588;9.848321;0.053039156;-0.023904635;-0.08490774;-19.050001;37.800003;-41.850002;22.882055;-6.355763;2.31595;1020.7415;-;-;51.52506211;-0.1334568;1.9700000286102295
1531048427907;-;-;0.2921924;1.1112891;9.81;0.024809647;-0.045209926;-0.07478773;-19.800001;38.550003;-39.0;22.96806;-6.416139;2.3092818;1020.74225;-;-;51.52506211;-0.1334568;1.9700000286102295
1531048427918;-;-;0.3065625;1.1448194;9.81958;0.026407545;-0.03935097;-0.06786351;-19.800001;38.550003;-39.0;22.96806;-6.416139;2.3092818;1020.74225;-;-;51.52506211;-0.1334568;1.9700000286102295
1531048427928;-;-;0.33530274;1.1496094;9.977652;0.030668603;-0.027100427;-0.06999404;-17.550001;38.7;-41.7;23.073622;-6.4772444;2.3293886;1020.74225;-;-;51.52506211;-0.1334568;1.9700000286102295
1531048427938;-;-;0.39757326;1.21188;9.982442;0.039190717;-0.023904635;-0.07212456;-19.5;38.4;-41.25;23.073622;-6.4772444;2.3293886;1020.74225;-;-;51.52506211;-0.1334568;1.9700000286102295
1531048427948;-;-;0.39757326;1.2166699;9.83874;0.035462294;-0.0047298735;-0.07904878;-19.5;38.4;-41.25;23.159548;-6.512807;2.3671439;1020.74225;-;-;51.52506211;-0.1334568;1.9700000286102295
1531048427958;-;-;0.32093263;1.092129;9.867481;0.03652756;0.028825957;-0.07691826;-16.800001;36.0;-38.850002;23.159548;-6.512807;2.3671439;1020.74225;-;-;51.52506211;-0.1334568;1.9700000286102295
1531048427968;-;-;0.2921924;1.1496094;9.85311;0.013091739;0.026695428;-0.06306981;-16.800001;36.0;-38.850002;23.245152;-6.5548625;2.382888;1020.74225;-;-;51.52506211;-0.1334568;1.9700000286102295
1531048427979;-;-;0.2203418;1.22625;9.82437;0.013624372;0.02989122;-0.042297162;-18.0;36.9;-41.100002;23.245152;-6.5548625;2.382888;1020.74225;-;-;51.52506211;-0.1334568;1.9700000286102295
1531048427989;-;-;0.3065625;1.1975098;9.891431;0.021613855;0.0021943452;-0.031111883;-18.0;36.9;-41.100002;23.33132;-6.593914;2.3540823;1020.74225;-;-;51.52506211;-0.1334568;1.9700000286102295
1531048427998;-;-;0.3305127;1.1879297;9.80521;0.024809647;-0.0036646093;-0.024187664;-17.85;36.0;-40.5;23.33132;-6.593914;2.3540823;1020.74225;-;-;51.52506211;-0.1334568;1.9700000286102295
1531048428008;-;-;0.43589357;1.1639795;9.72857;0.024809647;-0.0105888285;-0.032177147;-17.85;36.0;-40.5;23.387457;-6.612407;2.317693;1020.74805;-;-;51.52506211;-0.1334568;1.9700000286102295
1531048428018;-;-;0.45505372;1.1496094;9.637559;0.01788543;-0.0036646093;-0.022589767;-17.85;36.0;-40.5;23.387457;-6.612407;2.317693;1020.74805;-;-;51.52506211;-0.1334568;1.9700000286102295
1531048428029;-;-;0.4023633;1.2454102;9.70941;-0.012474608;0.013912255;-0.034307674;-18.0;35.4;-39.9;23.420923;-6.643268;2.3109179;1020.74805;-;-;51.52506211;-0.1334568;1.9700000286102295
1531048428039;-;-;0.39757326;1.1975098;9.68067;-0.031116735;0.01764068;-0.027916089;-16.95;36.15;-39.9;23.420923;-6.643268;2.3109179;1020.74805;-;-;51.52506211;-0.1334568;1.9700000286102295
1531048428049;-;-;0.39278322;1.2070899;9.733359;-0.057215713;0.018173313;-0.025252929;-16.95;36.15;-39.9;23.453794;-6.6621485;2.3097634;1020.74805;-;-;51.52506211;-0.1334568;1.9700000286102295
1531048428060;-;-;0.4023633;1.1879297;9.79563;-0.068400994;0.02243437;-0.01832871;-15.900001;36.15;-41.100002;23.453794;-6.6621485;2.3097634;1020.74805;-;-;51.52506211;-0.1334568;1.9700000286102295
1531048428070;-;-;0.4742139;1.1160791;9.733359;-0.062009405;-0.01591515;0.0024439478;-15.900001;36.15;-41.100002;23.487738;-6.626718;2.2900712;1020.74805;-;-;51.52506211;-0.1334568;1.9700000286102295
1531048428080;-;-;0.48379397;1.1879297;9.690249;-0.048693597;-0.012719357;0.006172374;-16.95;36.45;-39.0;23.487738;-6.626718;2.2900712;1020.74805;-;-;51.52506211;-0.1334568;1.9700000286102295
1531048428091;-;-;0.37362307;0.8813672;9.891431;-0.048693597;-0.026035162;0.025347134;-16.95;36.45;-39.0;23.508175;-6.550717;2.2707474;1020.74805;-;-;51.52506211;-0.1334568;1.9700000286102295
1531048428102;-;-;0.30177248;0.8861573;10.183623;0.07114865;0.052261773;0.02215134;-15.6;35.850002;-39.45;23.50261;-6.483365;2.28563;1020.74805;-;-;51.52506211;-0.1334568;1.9700000286102295
1531048428112;-;-;0.23950197;1.0202783;10.193204;0.15583718;6.381632E-5;0.03386925;-15.6;35.850002;-39.45;23.50261;-6.483365;2.28563;1020.7488;-;-;51.52506211;-0.1334568;1.9700000286102295
1531048428122;-;-;0.17244141;1.0298585;9.891431;0.14518455;-0.09474472;0.035467148;-17.1;37.050003;-38.100002;23.50261;-6.483365;2.28563;1020.7488;-;-;51.52506211;-0.1334568;1.9700000286102295
1531048428132;-;-;0.40715334;1.0538087;8.981323;-0.05401992;-0.019110944;0.10737249;-17.1;37.050003;-38.100002;23.474909;-6.466139;2.2905455;1020.7488;-;-;51.52506211;-0.1334568;1.9700000286102295
1531048428143;-;-;0.5221143;1.0298585;9.067544;-0.08810838;-0.003131977;0.104709335;-16.35;36.9;-41.100002;23.435814;-6.6099524;2.365762;1020.7488;-;-;51.52506211;-0.1334568;1.9700000286102295
1531048428152;-;-;0.7711963;1.0442286;9.627979;-0.24363698;0.070903905;0.02002081;-16.35;36.9;-41.100002;23.435814;-6.6099524;2.365762;1020.7488;-;-;51.52506211;-0.1334568;1.9700000286102295
1531048428162;-;-;0.7232959;1.1256592;9.996812;-0.26121384;0.06611021;-0.008208697;-16.5;35.25;-39.300003;23.328314;-6.547511;2.4273946;1020.7488;-;-;51.52506211;-0.1334568;1.9700000286102295
1531048428173;-;-;0.5460645;1.0681788;10.423125;-0.21647274;0.050131243;-0.021524502;-16.5;35.25;-39.300003;23.328314;-6.547511;2.4273946;1020.7488;-;-;51.52506211;-0.1334568;1.9700000286102295
1531048428183;-;-;0.5460645;1.0681788;10.423125;-0.21647274;0.050131243;-0.021524502;-16.800001;37.65;-38.850002;23.328314;-6.547511;2.4273946;1020.7488;-;-;51.52506211;-0.1334568;1.9700000286102295
1531048428193;-;-;0.23950197;1.1160791;10.724898;-0.016203033;-0.016447783;-0.009273961;-16.800001;37.65;-38.850002;23.28678;-6.284479;2.3558323;1020.7488;-;-;51.52506211;-0.1334568;1.9700000286102295
1531048428204;-;-;0.26345217;1.101709;10.375225;0.060496006;-0.08409208;0.015759753;-16.35;36.45;-37.5;23.305988;-6.0429173;2.2938058;1020.7493;-;-;51.52506211;-0.1334568;1.9700000286102295
1531048428214;-;-;0.2682422;1.0538087;10.188414;0.08819288;-0.09794051;0.032271355;-16.35;36.45;-37.5;23.305988;-6.0429173;2.2938058;1020.7493;-;-;51.52506211;-0.1334568;1.9700000286102295
1531048428224;-;-;0.244292;1.0059083;9.81;0.10150869;-0.09367946;0.0413261;-15.6;36.15;-38.7;23.305988;-6.0429173;2.2938058;1020.7493;-;-;51.52506211;-0.1334568;1.9700000286102295
1531048428234;-;-;0.3879932;0.98195803;9.532178;0.07274655;-0.057460465;0.053044006;-15.6;36.15;-38.7;23.317608;-6.0150046;2.3110697;1020.7493;-;-;51.52506211;-0.1334568;1.9700000286102295
1531048428245;-;-;0.43589357;1.0394385;9.522598;0.021613434;-0.008461144;0.042912632;-19.050001;38.850002;-40.2;23.28933;-6.1202126;2.4230669;1020.7493;-;-;51.52506211;-0.1334568;1.9700000286102295
1531048428254;-;-;0.40715334;0.96758795;9.513018;-0.024192937;0.036279965;0.03279262;-19.050001;38.850002;-40.2;23.28933;-6.1202126;2.4230669;1020.7493;-;-;51.52506211;-0.1334568;1.9700000286102295
1531048428265;-;-;0.4167334;1.0777588;9.7621;-0.05295508;0.06983579;0.024270503;-17.85;36.600002;-40.050003;23.247208;-6.195386;2.4960983;1020.7493;-;-;51.52506211;-0.1334568;1.9700000286102295
1531048428275;-;-;0.34009278;1.0585986;9.8866415;-0.0731951;0.07196632;0.022139974;-17.85;36.600002;-40.050003;23.247208;-6.195386;2.4960983;1020.7493;-;-;51.52506211;-0.1334568;1.9700000286102295
1531048428285;-;-;0.3305127;1.0729688;9.958491;-0.07532563;0.061846312;0.004030479;-19.050001;38.25;-39.9;23.21149;-6.175973;2.4632227;1020.7493;-;-;51.52506211;-0.1334568;1.9700000286102295
1531048428296;-;-;0.34009278;1.096919;10.054293;-0.06946667;0.03255154;-0.0028937396;-19.050001;38.25;-39.9;23.21149;-6.175973;2.4632227;1020.7493;-;-;51.52506211;-0.1334568;1.9700000286102295
1531048428306;-;-;0.32093263;1.0298585;10.102193;-0.051889814;-0.006863247;-0.021535868;-18.6;37.65;-39.600002;23.185432;-6.0973363;2.387376;1020.7482;-;-;51.52506211;-0.1334568;1.9700000286102295
1531048428316;-;-;0.29698244;1.0585986;10.020762;-0.047096122;-0.013254833;-0.014079017;-17.1;36.600002;-40.050003;23.185432;-6.0973363;2.387376;1020.7482;-;-;51.52506211;-0.1334568;1.9700000286102295
1531048428327;-;-;0.34967285;1.0346485;10.001602;-0.03431295;-0.021776948;-0.02899272;-17.1;36.600002;-40.050003;23.190556;-6.0177054;2.3464837;1020.7482;-;-;51.52506211;-0.1334568;1.9700000286102295
1531048428337;-;-;0.3544629;1.0490186;10.054293;-0.030051893;-0.029766433;-0.021003237;-16.650002;37.800003;-40.65;23.217249;-5.965605;2.3534281;1020.7482;-;-;51.52506211;-0.1334568;1.9700000286102295
1531048428347;-;-;0.26345217;1.0346485;10.049502;-0.021529777;-0.023907479;-0.03431904;-16.650002;37.800003;-40.65;23.217249;-5.965605;2.3534281;1020.7482;-;-;51.52506211;-0.1334568;1.9700000286102295
1531048428357;-;-;0.25866213;1.0346485;10.030342;-0.02206241;-0.021244317;-0.021003237;-16.95;36.9;-39.0;23.250217;-5.9286127;2.3821118;1020.7482;-;-;51.52506211;-0.1334568;1.9700000286102295
1531048428367;-;-;0.2921924;1.0585986;10.0063925;-0.03218242;-0.030831696;-0.021535868;-16.95;36.9;-39.0;23.250217;-5.9286127;2.3821118;1020.7482;-;-;51.52506211;-0.1334568;1.9700000286102295
1531048428378;-;-;0.30177248;1.0681788;10.015972;-0.03218242;-0.030299064;-0.026862191;-17.1;37.65;-38.850002;23.2852;-5.899907;2.409588;1020.7482;-;-;51.52506211;-0.1334568;1.9700000286102295
1531048428387;-;-;0.27303225;1.0873389;10.039923;-0.03218242;-0.02444011;-0.03911273;-17.1;37.65;-38.850002;23.2852;-5.899907;2.409588;1020.7482;-;-;51.52506211;-0.1334568;1.9700000286102295
1531048428397;-;-;0.24908204;1.1304493;10.083033;-0.038574006;-0.019113788;-0.0369822;-17.25;36.9;-39.9;23.2852;-5.899907;2.409588;1020.7482;-;-;51.52506211;-0.1334568;1.9700000286102295
1531048428407;-;-;0.22992188;1.0825489;10.140513;-0.025258202;5.9360417E-4;-0.02419903;-17.25;36.9;-39.9;23.321615;-5.8673897;2.4386241;1020.74554;-;-;51.52506211;-0.1334568;1.9700000286102295
1531048428418;-;-;0.27303225;1.0490186;10.202784;-0.030051893;-0.007928511;-0.028460087;-16.050001;37.350002;-38.850002;23.36568;-5.8252087;2.4586313;1020.74554;-;-;51.52506211;-0.1334568;1.9700000286102295
1531048428427;-;-;0.23950197;1.0633887;10.068663;-0.001822384;-0.009526407;-0.009285326;-16.050001;37.350002;-38.850002;23.36568;-5.8252087;2.4586313;1020.74554;-;-;51.52506211;-0.1334568;1.9700000286102295
1531048428438;-;-;0.16765137;1.0873389;10.044712;-0.0012897517;-0.010591673;-0.010883222;-18.150002;37.350002;-38.850002;23.395098;-5.799194;2.460261;1020.74554;-;-;51.52506211;-0.1334568;1.9700000286102295
1531048428448;-;-;0.30177248;1.0633887;10.063872;8.407772E-4;-0.032429595;0.021607341;-18.150002;37.350002;-38.850002;23.395098;-5.799194;2.460261;1020.74554;-;-;51.52506211;-0.1334568;1.9700000286102295
1531048428459;-;-;0.3065625;1.0681788;10.087823;0.009895525;-0.045212768;0.008291538;-18.6;36.300003;-40.050003;23.403349;-5.798776;2.4730995;1020.74554;-;-;51.52506211;-0.1334568;1.9700000286102295
1531048428468;-;-;0.2682422;1.0059083;10.169253;0.035461873;-0.054267514;0.015748387;-18.6;36.300003;-40.050003;23.403349;-5.798776;2.4730995;1020.74554;-;-;51.52506211;-0.1334568;1.9700000286102295
1531048428481;-;-;0.26345217;1.0442286;10.030342;0.056767162;-0.056930676;0.020542078;-18.75;38.25;-40.65;23.39197;-5.801833;2.5173693;1020.74554;-;-;51.52506211;-0.1334568;1.9700000286102295
1531048428490;-;-;0.3161426;1.1208692;9.877061;0.08659457;-0.050006457;0.0258684;-18.75;38.25;-40.65;23.39197;-5.801833;2.5173693;1020.74554;-;-;51.52506211;-0.1334568;1.9700000286102295
1531048428500;-;-;0.44547364;1.1160791;9.72378;0.07327876;-0.054267514;0.0258684;-18.6;37.350002;-40.95;23.376747;-5.849239;2.5814605;1020.74554;-;-;51.52506211;-0.1334568;1.9700000286102295
1531048428510;-;-;0.4406836;1.0585986;9.575289;0.042918723;-0.051071722;0.00882417;-18.6;37.350002;-40.95;23.376747;-5.849239;2.5814605;1020.74646;-;-;51.52506211;-0.1334568;1.9700000286102295
1531048428520;-;-;0.4742139;0.9963282;9.867481;0.017885009;-0.04095171;0.009889434;-16.35;38.25;-39.0;23.355877;-5.935079;2.6474912;1020.74646;-;-;51.52506211;-0.1334568;1.9700000286102295
1531048428531;-;-;0.4981641;1.092129;10.0063925;0.0146892145;-0.027635904;0.00882417;-16.35;38.25;-39.0;23.355877;-5.935079;2.6474912;1020.74646;-;-;51.52506211;-0.1334568;1.9700000286102295
1531048428541;-;-;0.4406836;1.0154883;10.068663;0.02534186;-0.02230958;0.0018999504;-16.800001;39.0;-39.300003;23.342333;-5.9788117;2.7048278;1020.74646;-;-;51.52506211;-0.1334568;1.9700000286102295
1531048428551;-;-;0.5364844;1.0490186;9.905801;0.043451354;-0.031896964;-0.016209546;-16.800001;39.0;-39.300003;23.342333;-5.9788117;2.7048278;1020.74646;-;-;51.52506211;-0.1334568;1.9700000286102295
1531048428561;-;-;0.5508545;1.0106983;9.70941;0.041853458;-0.04148434;-0.01514428;-18.900002;37.050003;-42.15;23.33764;-5.9980164;2.7357056;1020.74646;-;-;51.52506211;-0.1334568;1.9700000286102295
1531048428571;-;-;0.50774413;0.9915381;9.6758795;0.021080801;-0.049473826;-0.024731662;-18.900002;37.050003;-42.15;23.33764;-5.9980164;2.7357056;1020.74646;-;-;51.52506211;-0.1334568;1.9700000286102295
1531048428581;-;-;0.43589357;0.9963282;9.7812605;-0.006616074;-0.051604353;-0.035384305;-18.900002;38.100002;-39.300003;23.353672;-6.0452614;2.767702;1020.74646;-;-;51.52506211;-0.1334568;1.9700000286102295
1531048428591;-;-;0.39757326;0.9436377;9.862691;-0.028453995;-0.04894119;-0.047102213;-18.900002;38.100002;-39.300003;23.353672;-6.0452614;2.767702;1020.74646;-;-;51.52506211;-0.1334568;1.9700000286102295
1531048428602;-;-;0.3065625;0.96758795;10.097403;-0.032715052;-0.043082237;-0.050298005;-16.650002;36.15;-39.45;23.39597;-6.061197;2.819101;1020.74646;-;-;51.52506211;-0.1334568;1.9700000286102295
1531048428612;-;-;0.3544629;0.9484278;9.934542;-0.019931879;-0.027103271;-0.04870011;-16.650002;36.15;-39.45;23.39597;-6.061197;2.819101;1020.74646;-;-;51.52506211;-0.1334568;1.9700000286102295
1531048428622;-;-;0.3879932;0.9915381;9.915381;-0.0034202805;-0.03136433;-0.03378641;-15.750001;38.4;-41.7;23.457762;-6.033596;2.867076;1020.74646;-;-;51.52506211;-0.1334568;1.9700000286102295
1531048428632;-;-;0.38320315;0.96758795;9.867481;0.009362893;-0.04840856;-0.028460087;-15.750001;38.4;-41.7;23.457762;-6.033596;2.867076;1020.74646;-;-;51.52506211;-0.1334568;1.9700000286102295
1531048428642;-;-;0.45026368;0.97237796;9.848321;0.02321133;-0.032962225;-0.019937972;-18.6;37.65;-39.300003;23.513388;-6.0189652;2.8996785;1020.74646;-;-;51.52506211;-0.1334568;1.9700000286102295
1531048428653;-;-;0.45505372;1.0394385;9.982442;0.026407124;-0.0292338;-0.014611648;-18.6;37.65;-39.300003;23.513388;-6.0189652;2.8996785;1020.74646;-;-;51.52506211;-0.1334568;1.9700000286102295
1531048428663;-;-;0.52690434;1.0250684;9.944121;0.040788192;-0.042549606;-0.008220062;-17.1;38.100002;-39.300003;23.557125;-6.0300303;2.9508355;1020.74646;-;-;51.52506211;-0.1334568;1.9700000286102295
1531048428673;-;-;0.46942386;0.9963282;9.910591;0.049842943;-0.04787593;-0.0050242683;-17.1;38.100002;-39.300003;23.557125;-6.0300303;2.9508355;1020.74646;-;-;51.52506211;-0.1334568;1.9700000286102295
1531048428683;-;-;0.5604346;1.0873389;9.939331;0.062093485;-0.042549606;-0.01514428;-17.85;37.050003;-36.75;23.581911;-6.0636096;2.9876676;1020.74646;-;-;51.52506211;-0.1334568;1.9700000286102295
1531048428694;-;-;0.49337405;1.1064991;9.944121;0.06741981;-0.051604353;-0.00768743;-17.85;37.050003;-36.75;23.581911;-6.0636096;2.9876676;1020.74646;-;-;51.52506211;-0.1334568;1.9700000286102295
1531048428704;-;-;0.38320315;1.0538087;9.81;0.06635454;-0.050006457;-0.010350591;-16.650002;37.2;-39.45;23.595387;-6.121839;3.0389223;1020.7428;-;-;51.52506211;-0.1334568;1.9700000286102295
1531048428715;-;-;0.45026368;1.0585986;9.74294;0.05463663;-0.032429595;-0.0034263718;-16.650002;37.2;-39.45;23.595387;-6.121839;3.0389223;1020.7428;-;-;51.52506211;-0.1334568;1.9700000286102295
1531048428725;-;-;0.4263135;0.9436377;9.685459;0.011493422;-0.0073958794;-0.0034263718;-16.35;37.2;-40.2;23.615976;-6.198876;3.0899289;1020.7428;-;-;51.52506211;-0.1334568;1.9700000286102295
1531048428736;-;-;0.4742139;1.0729688;9.627979;0.0035039384;-0.018581156;-0.0018284752;-17.25;35.4;-39.45;23.62696;-6.2588186;3.1267834;1020.7428;-;-;51.52506211;-0.1334568;1.9700000286102295
1531048428746;-;-;0.4742139;1.1256592;9.7621;-0.034313712;0.015502145;0.015195131;-17.25;35.4;-39.45;23.62696;-6.2588186;3.1267834;1020.7428;-;-;51.52506211;-0.1334568;1.9700000286102295
1531048428756;-;-;0.43110353;1.0346485;9.881851;-0.043368462;0.04160112;-2.51204E-4;-16.650002;36.9;-39.45;23.62696;-6.2588186;3.1267834;1020.7428;-;-;51.52506211;-0.1334568;1.9700000286102295
1531048428767;-;-;0.44547364;1.101709;9.948912;-0.030585289;0.062373776;0.009868808;-16.650002;36.9;-39.45;23.628874;-6.2539253;3.1284506;1020.7428;-;-;51.52506211;-0.1334568;1.9700000286102295
1531048428776;-;-;0.39757326;1.0346485;10.020762;-0.034313712;0.049057975;-2.51204E-4;-16.95;35.850002;-41.100002;23.628874;-6.2539253;3.1284506;1020.7428;-;-;51.52506211;-0.1334568;1.9700000286102295
1531048428786;-;-;0.35925296;1.0442286;9.992022;-0.01673685;0.043731652;0.017325658;-16.95;35.850002;-41.100002;23.616774;-6.2020383;3.0920727;1020.7428;-;-;51.52506211;-0.1334568;1.9700000286102295
1531048428796;-;-;0.37362307;0.9963282;10.039923;-0.013541058;0.033079006;0.0029445894;-17.7;37.5;-39.45;23.616774;-6.2020383;3.0920727;1020.7428;-;-;51.52506211;-0.1334568;1.9700000286102295
1531048428807;-;-;0.38320315;1.0729688;10.159674;0.016286347;0.024024261;0.023184614;-17.7;37.5;-39.45;23.59604;-6.1648917;3.035787;1020.74207;-;-;51.52506211;-0.1334568;1.9700000286102295
1531048428817;-;-;0.364043;1.092129;10.164463;0.027471624;0.023491628;0.047153063;-16.95;36.9;-38.25;23.569399;-6.1477084;3.0043874;1020.74207;-;-;51.52506211;-0.1334568;1.9700000286102295
1531048428828;-;-;0.45505372;1.1735597;9.891431;0.041852694;0.044264283;0.021054085;-16.95;36.9;-38.25;23.569399;-6.1477084;3.0043874;1020.74207;-;-;51.52506211;-0.1334568;1.9700000286102295
1531048428837;-;-;0.43589357;1.0346485;9.881851;0.041852694;0.057047457;0.020521453;-16.800001;37.050003;-38.850002;23.526676;-6.1698194;2.9775152;1020.74207;-;-;51.52506211;-0.1334568;1.9700000286102295
1531048428847;-;-;0.4023633;1.0538087;9.848321;0.013623186;0.046394814;0.033304628;-16.800001;37.050003;-38.850002;23.526676;-6.1698194;2.9775152;1020.74207;-;-;51.52506211;-0.1334568;1.9700000286102295
1531048428858;-;-;0.46463382;1.0442286;9.81958;0.004568438;0.04586218;0.040228844;-17.25;35.4;-39.9;23.486681;-6.210386;2.9203348;1020.74207;-;-;51.52506211;-0.1334568;1.9700000286102295
1531048428867;-;-;0.5029541;1.0873389;9.982442;-0.005018942;0.052253768;0.017325658;-17.25;35.4;-39.9;23.486681;-6.210386;2.9203348;1020.74207;-;-;51.52506211;-0.1334568;1.9700000286102295
1531048428878;-;-;0.5412744;1.101709;10.044712;-0.0034210451;0.0677001;0.027978305;-16.95;37.2;-39.0;23.444235;-6.2156835;2.8697777;1020.74207;-;-;51.52506211;-0.1334568;1.9700000286102295
1531048428888;-;-;0.50774413;1.0059083;9.992022;0.008829496;0.061308514;0.0072056465;-16.95;37.2;-39.0;23.444235;-6.2156835;2.8697777;1020.74207;-;-;51.52506211;-0.1334568;1.9700000286102295
1531048428900;-;-;0.46942386;1.0250684;9.958491;0.014155818;0.06397168;-0.007708055;-16.95;36.45;-37.800003;23.410475;-6.210627;2.805851;1020.7409;-;-;51.52506211;-0.1334568;1.9700000286102295
1531048428909;-;-;0.4263135;1.0729688;9.857901;0.016286347;0.06610221;-0.009305952;-16.95;36.45;-37.800003;23.410475;-6.210627;2.805851;1020.7409;-;-;51.52506211;-0.1334568;1.9700000286102295
1531048428919;-;-;0.38320315;1.1112891;9.929751;0.013090554;0.059710618;-0.014632274;-16.800001;38.100002;-40.5;23.394932;-6.2190657;2.7385077;1020.7409;-;-;51.52506211;-0.1334568;1.9700000286102295
1531048428929;-;-;0.46942386;1.1064991;9.901011;0.010427392;0.065036945;-0.022621758;-16.800001;38.100002;-40.5;23.394932;-6.2190657;2.7385077;1020.7409;-;-;51.52506211;-0.1334568;1.9700000286102295
1531048428940;-;-;0.40715334;1.0059083;9.944121;0.018416878;0.102853835;-0.015697539;-15.750001;37.65;-38.850002;23.394098;-6.233112;2.6670146;1020.7409;-;-;51.52506211;-0.1334568;1.9700000286102295
1531048428949;-;-;0.4263135;0.9484278;9.8866415;0.015753716;0.11350647;-0.029545978;-15.750001;37.65;-38.850002;23.394098;-6.233112;2.6670146;1020.7409;-;-;51.52506211;-0.1334568;1.9700000286102295
1531048428960;-;-;0.3544629;0.9580079;9.79563;0.022145303;0.117767535;-0.017828068;-16.5;36.300003;-39.300003;23.400377;-6.249449;2.5724316;1020.7409;-;-;51.52506211;-0.1334568;1.9700000286102295
1531048428970;-;-;0.2921924;1.0250684;9.81;0.0051010703;0.10019067;-0.0066427905;-16.5;36.300003;-39.300003;23.400377;-6.249449;2.5724316;1020.7409;-;-;51.52506211;-0.1334568;1.9700000286102295
1531048428981;-;-;0.31135255;0.9963282;9.829161;-0.02366107;0.057047457;-0.0050448943;-15.6;37.5;-39.45;23.411434;-6.272691;2.4416387;1020.7409;-;-;51.52506211;-0.1334568;1.9700000286102295
1531048428991;-;-;0.32093263;1.0681788;10.035132;-0.03165055;0.04160112;-0.0029143651;-15.6;37.5;-39.45;23.411434;-6.272691;2.4416387;1020.7409;-;-;51.52506211;-0.1334568;1.9700000286102295
1531048429002;-;-;0.3065625;1.0059083;10.308165;-0.0140736895;0.027752686;-0.0045122616;-16.35;36.9;-39.45;23.411474;-6.269223;2.3374898;1020.7383;-;-;51.52506211;-0.1334568;1.9700000286102295
1531048429011;-;-;0.364043;1.0106983;10.303374;0.016286347;0.025089527;-0.008240688;-16.35;36.9;-39.45;23.411474;-6.269223;2.3374898;1020.7383;-;-;51.52506211;-0.1334568;1.9700000286102295
1531048429021;-;-;0.33530274;1.0298585;10.169253;0.06795167;0.05491693;-0.011969114;-17.1;36.600002;-39.300003;23.415041;-6.236702;2.2890782;1020.7383;-;-;51.52506211;-0.1334568;1.9700000286102295
1531048429032;-;-;0.32093263;1.0633887;10.145303;0.09884434;0.087940134;-0.008773319;-17.1;36.600002;-39.300003;23.415041;-6.236702;2.2890782;1020.7383;-;-;51.52506211;-0.1334568;1.9700000286102295
1531048429042;-;-;0.2778223;1.0298585;9.920172;0.12068226;0.14120334;-0.0050448943;-14.700001;36.300003;-36.45;23.423462;-6.2666345;2.2475383;1020.7383;-;-;51.52506211;-0.1334568;1.9700000286102295
1531048429052;-;-;0.29698244;1.0777588;9.7812605;0.11748647;0.15398651;0.015727762;-14.700001;36.300003;-36.45;23.423462;-6.2666345;2.2475383;1020.7383;-;-;51.52506211;-0.1334568;1.9700000286102295
1531048429062;-;-;0.3784131;1.1448194;9.73815;0.097246446;0.16463916;0.021586716;-15.900001;36.15;-40.65;23.422956;-6.3807683;2.136125;1020.7383;-;-;51.52506211;-0.1334568;1.9700000286102295
1531048429073;-;-;0.3544629;1.2022998;9.75731;0.0865938;0.18274866;0.037565682;-15.900001;36.15;-40.65;23.422956;-6.3807683;2.136125;1020.7383;-;-;51.52506211;-0.1334568;1.9700000286102295
1531048429085;-;-;0.32572266;1.2166699;9.934542;0.09777908;0.21044554;0.023184614;-16.650002;37.2;-39.0;23.385323;-6.512982;1.9660976;1020.7383;-;-;51.52506211;-0.1334568;1.9700000286102295
1531048429094;-;-;0.23950197;1.2358302;9.920172;0.09405065;0.20618448;0.03383726;-16.650002;37.2;-39.0;23.385323;-6.512982;1.9660976;1020.7383;-;-;51.52506211;-0.1334568;1.9700000286102295
1531048429104;-;-;0.3544629;1.1496094;10.126143;0.13240017;0.2461319;0.054609913;-16.35;35.4;-38.7;23.333252;-6.6227164;1.7590809;1020.74316;-;-;51.52506211;-0.1334568;1.9700000286102295
1531048429114;-;-;0.45984375;1.1496094;10.054293;0.15370546;0.26157823;0.069523625;-16.35;35.4;-38.7;23.333252;-6.6227164;1.7590809;1020.74316;-;-;51.52506211;-0.1334568;1.9700000286102295
1531048429125;-;-;0.5508545;1.3028907;9.565708;0.14891177;0.2743614;0.041826744;-17.550001;36.300003;-39.600002;23.26161;-6.737272;1.5212375;1020.74316;-;-;51.52506211;-0.1334568;1.9700000286102295
1531048429135;-;-;0.62749517;1.2933106;9.398057;0.12760648;0.29140565;0.032771993;-14.700001;36.600002;-38.850002;23.15529;-6.908105;1.2365565;1020.74316;-;-;51.52506211;-0.1334568;1.9700000286102295
1531048429146;-;-;0.49337405;1.1543995;9.187295;0.010960025;0.34360358;-0.008773319;-14.700001;36.600002;-38.850002;23.15529;-6.908105;1.2365565;1020.74316;-;-;51.52506211;-0.1334568;1.9700000286102295
1531048429156;-;-;0.5029541;1.1591895;9.422008;-0.024726333;0.34360358;-0.02049123;-15.6;36.9;-39.45;23.083252;-7.035514;0.9026434;1020.74316;-;-;51.52506211;-0.1334568;1.9700000286102295
1531048429166;-;-;0.10538086;1.1448194;9.7812605;-0.05934743;0.35159308;-0.043394413;-15.6;36.9;-39.45;23.083252;-7.035514;0.9026434;1020.74316;-;-;51.52506211;-0.1334568;1.9700000286102295
1531048429176;-;-;-0.06227051;1.1496094;9.80521;-0.056151636;0.35638678;-0.034339666;-15.150001;37.350002;-40.050003;23.056553;-7.017552;0.5146479;1020.74316;-;-;51.52506211;-0.1334568;1.9700000286102295
1531048429187;-;-;-0.100590825;1.3124708;9.996812;-0.026324231;0.35106045;-0.02794808;-15.150001;37.350002;-40.050003;23.056553;-7.017552;0.5146479;1020.74316;-;-;51.52506211;-0.1334568;1.9700000286102295
1531048429196;-;-;-0.21555176;1.22146;9.953702;-0.020997908;0.33987516;-0.02581755;-15.450001;35.7;-40.050003;23.04913;-6.9560304;0.09721818;1020.74316;-;-;51.52506211;-0.1334568;1.9700000286102295
1531048429207;-;-;-0.3784131;1.3028907;9.915381;0.0051010703;0.25998032;-0.009305952;-15.450001;35.7;-40.050003;23.04913;-6.9560304;0.09721818;1020.74255;-;-;51.52506211;-0.1334568;1.9700000286102295
1531048429217;-;-;-0.4406836;1.2549903;10.0063925;0.0077642314;0.23334873;-0.011436481;-14.700001;36.300003;-41.7;23.034601;-6.93234;-0.28189775;1020.74255;-;-;51.52506211;-0.1334568;1.9700000286102295
1531048429228;-;-;-0.45026368;1.1400293;10.298584;0.055701133;0.17742234;0.027978305;-14.700001;36.300003;-41.7;23.034601;-6.93234;-0.28189775;1020.74255;-;-;51.52506211;-0.1334568;1.9700000286102295
1531048429238;-;-;-0.39757326;1.1735597;10.365645;0.071147464;0.16410653;0.029576201;-14.250001;37.800003;-39.0;23.010374;-6.9445033;-0.5499164;1020.74255;-;-;51.52506211;-0.1334568;1.9700000286102295
1531048429247;-;-;-0.244292;1.2310401;10.332115;0.108964354;0.13747492;0.033304628;-14.250001;37.800003;-39.0;23.010374;-6.9445033;-0.5499164;1020.74255;-;-;51.52506211;-0.1334568;1.9700000286102295
1531048429258;-;-;-0.3161426;1.2693604;10.346485;0.14251919;0.13160923;0.0061134435;-14.250001;36.45;-40.65;22.95011;-7.0271864;-0.7328155;1020.74255;-;-;51.52506211;-0.1334568;1.9700000286102295
1531048429268;-;-;-0.31135255;1.1543995;10.0063925;0.17607501;0.14066398;-0.010930788;-14.250001;36.45;-40.65;22.95011;-7.0271864;-0.7328155;1020.74255;-;-;51.52506211;-0.1334568;1.9700000286102295
1531048429278;-;-;-0.20118165;1.1687696;9.77168;0.17447712;0.15291452;-0.005604466;-14.250001;36.9;-39.9;22.920883;-7.192567;-0.8801159;1020.74255;-;-;51.52506211;-0.1334568;1.9700000286102295
1531048429289;-;-;-0.05748047;1.21188;9.474698;0.12867075;0.1822093;2.5448855E-4;-14.250001;36.9;-39.9;22.920883;-7.192567;-0.8801159;1020.74255;-;-;51.52506211;-0.1334568;1.9700000286102295
1531048429298;-;-;-0.033530276;1.2022998;9.321417;0.09511492;0.2104388;0.010374501;-13.500001;36.9;-39.9;22.903887;-7.3899245;-1.0442271;1020.74255;-;-;51.52506211;-0.1334568;1.9700000286102295
1531048429308;-;-;-0.081430666;1.2549903;9.129815;0.030666418;0.23493989;0.016766088;-13.500001;36.9;-39.9;22.903887;-7.3899245;-1.0442271;1020.7381;-;-;51.52506211;-0.1334568;1.9700000286102295
1531048429319;-;-;-0.07185059;1.22146;9.206455;-0.02366207;0.21789566;0.008776604;-14.55;37.2;-39.9;22.86969;-7.5257225;-1.2600094;1020.7381;-;-;51.52506211;-0.1334568;1.9700000286102295
1531048429329;-;-;-0.39278322;1.2645704;9.64714;-0.080121085;0.18274193;-0.010930788;-14.55;37.2;-39.9;22.86969;-7.5257225;-1.2600094;1020.7381;-;-;51.52506211;-0.1334568;1.9700000286102295
1531048429339;-;-;-0.67539555;1.3172607;9.896221;-0.07639266;0.1790135;-0.012528685;-14.250001;36.15;-40.2;22.823013;-7.538378;-1.5105687;1020.7381;-;-;51.52506211;-0.1334568;1.9700000286102295
1531048429349;-;-;-0.6849756;1.336421;10.322535;-0.03378208;0.1326745;0.017831352;-14.250001;36.15;-40.2;22.823013;-7.538378;-1.5105687;1020.7381;-;-;51.52506211;-0.1334568;1.9700000286102295
1531048429360;-;-;-0.852627;1.3220508;10.451866;0.031731684;0.06023651;0.044462964;-13.650001;35.7;-39.600002;22.808104;-7.4521174;-1.7205112;1020.7381;-;-;51.52506211;-0.1334568;1.9700000286102295
1531048429371;-;-;-0.8669971;1.2502003;10.356065;0.1063002;-0.0015488287;0.05777877;-13.650001;35.7;-39.600002;22.808104;-7.4521174;-1.7205112;1020.7381;-;-;51.52506211;-0.1334568;1.9700000286102295
1531048429381;-;-;-0.6849756;1.4178516;10.178833;0.14891078;-0.038833085;0.07855143;-12.450001;35.850002;-39.9;22.763248;-7.4341397;-1.8473405;1020.7381;-;-;51.52506211;-0.1334568;1.9700000286102295
1531048429392;-;-;-0.5412744;1.4322218;10.020762;0.1478455;-0.04469204;0.06523562;-12.450001;35.850002;-39.9;22.763248;-7.4341397;-1.8473405;1020.7381;-;-;51.52506211;-0.1334568;1.9700000286102295
1531048429402;-;-;-0.5460645;1.3268409;10.164463;0.14571498;-0.055877317;0.061507195;-13.200001;37.5;-39.45;22.69066;-7.560927;-1.8292712;1020.73706;-;-;51.52506211;-0.1334568;1.9700000286102295
1531048429412;-;-;-0.46463382;1.3939015;10.130933;0.15796553;-0.04682257;0.074823;-13.200001;37.5;-39.45;22.69066;-7.560927;-1.8292712;1020.73706;-;-;51.52506211;-0.1334568;1.9700000286102295
1531048429422;-;-;-0.46942386;1.346001;10.068663;0.17181396;-0.041496247;0.092399865;-13.950001;36.9;-41.550003;22.623425;-7.7329936;-1.7678181;1020.73706;-;-;51.52506211;-0.1334568;1.9700000286102295
1531048429432;-;-;-0.4406836;1.3891114;10.087823;0.18086872;-0.054812055;0.08973671;-13.950001;36.9;-41.550003;22.623425;-7.7329936;-1.7678181;1020.73706;-;-;51.52506211;-0.1334568;1.9700000286102295
1531048429443;-;-;-0.39278322;1.4178516;10.044712;0.19631504;-0.10541211;0.09879145;-14.250001;35.4;-40.2;22.548386;-7.9139204;-1.700926;1020.73706;-;-;51.52506211;-0.1334568;1.9700000286102295
1531048429453;-;-;-0.40715334;1.4753321;10.059082;0.20803295;-0.12298898;0.101454616;-14.250001;35.4;-40.2;22.548386;-7.9139204;-1.700926;1020.73706;-;-;51.52506211;-0.1334568;1.9700000286102295
1531048429463;-;-;-0.19639161;1.4609619;10.164463;0.23146877;-0.13790268;0.108378835;-12.0;35.7;-41.7;22.460066;-8.124958;-1.606377;1020.73706;-;-;51.52506211;-0.1334568;1.9700000286102295
1531048429473;-;-;-0.14370118;1.3939015;10.063872;0.2351972;-0.13151109;0.10305251;-14.400001;36.300003;-41.7;22.460066;-8.124958;-1.606377;1020.73706;-;-;51.52506211;-0.1334568;1.9700000286102295
1531048429485;-;-;-0.2921924;1.3603711;8.952583;-0.08384951;0.039996482;0.1094441;-14.400001;36.300003;-41.7;22.364656;-8.371035;-1.4442232;1020.73706;-;-;51.52506211;-0.1334568;1.9700000286102295
1531048429495;-;-;-0.244292;1.3220508;9.72857;-0.11420955;-0.016995164;0.11370516;-15.150001;36.600002;-41.25;22.255056;-8.5809145;-1.3731182;1020.73706;-;-;51.52506211;-0.1334568;1.9700000286102295
1531048429505;-;-;0.17244141;1.5567628;10.356065;-0.09876321;-0.10115106;0.101454616;-15.150001;36.600002;-41.25;22.255056;-8.5809145;-1.3731182;1020.74194;-;-;51.52506211;-0.1334568;1.9700000286102295
1531048429516;-;-;0.1820215;1.5328126;10.6817875;-0.07639266;-0.091031045;0.090269335;-16.5;36.600002;-40.050003;22.133669;-8.45468;-1.3034992;1020.74194;-;-;51.52506211;-0.1334568;1.9700000286102295
1531048429525;-;-;-0.0047900393;1.6669337;11.050621;0.12973602;-0.08144366;-0.006137098;-16.5;36.600002;-40.050003;22.133669;-8.45468;-1.3034992;1020.74194;-;-;51.52506211;-0.1334568;1.9700000286102295
1531048429535;-;-;0.12454102;1.6477735;11.088941;0.16968343;-0.07824787;-0.015724478;-14.250001;37.2;-40.65;22.069126;-8.409666;-1.1941739;1020.74194;-;-;51.52506211;-0.1334568;1.9700000286102295
1531048429545;-;-;-0.28261232;1.7483643;10.427916;0.3379952;-0.05427942;-0.03969293;-14.250001;37.2;-40.65;22.069126;-8.409666;-1.1941739;1020.74194;-;-;51.52506211;-0.1334568;1.9700000286102295
1531048429556;-;-;-0.43589357;1.6094532;9.968072;0.33906046;-0.055877317;-0.03543187;-15.900001;36.15;-40.65;22.106504;-8.642078;-1.1135635;1020.74194;-;-;51.52506211;-0.1334568;1.9700000286102295
1531048429566;-;-;-0.25866213;1.5376027;8.52148;0.19951084;-0.05427942;-0.019985536;-15.900001;36.15;-40.65;22.106504;-8.642078;-1.1135635;1020.74194;-;-;51.52506211;-0.1334568;1.9700000286102295
1531048429576;-;-;-0.17723145;1.4944923;8.028106;0.096180186;-0.04043098;-0.02531186;-14.700001;36.300003;-38.850002;22.157934;-9.006522;-1.0546883;1020.74194;-;-;51.52506211;-0.1334568;1.9700000286102295
1531048429586;-;-;-0.31135255;1.5807129;7.558682;-0.32406667;-0.005277254;-0.045019254;-14.700001;36.300003;-38.850002;22.157934;-9.006522;-1.0546883;1020.74194;-;-;51.52506211;-0.1334568;1.9700000286102295
1531048429596;-;-;-0.4167334;1.5519727;8.042476;-0.44284365;-0.004744622;-0.042888723;-14.400001;36.0;-41.25;22.196629;-9.077302;-1.0209086;1020.74194;-;-;51.52506211;-0.1334568;1.9700000286102295
1531048429606;-;-;0.05748047;1.4801221;10.102193;-0.5957091;-0.031908866;-0.04448662;-14.400001;36.0;-41.25;22.196629;-9.077302;-1.0209086;1020.74255;-;-;51.52506211;-0.1334568;1.9700000286102295
1531048429627;-;-;-0.25387207;1.21188;11.03625;-0.28252134;0.024550151;-0.08017298;-14.85;38.25;-41.850002;22.25051;-8.575422;-1.0140774;1020.74255;-;-;51.52506211;-0.1334568;1.9700000286102295
1531048429618;-;-;-0.009580079;1.4034815;11.031461;-0.46042052;0.011234345;-0.072716124;-14.85;38.25;-41.850002;22.25051;-8.575422;-1.0140774;1020.74255;-;-;51.52506211;-0.1334568;1.9700000286102295
1531048429637;-;-;-0.34009278;1.2406201;10.820699;-0.24470444;0.030941738;-0.08336877;-14.55;36.45;-41.550003;22.31986;-7.9580646;-1.0147961;1020.74255;-;-;51.52506211;-0.1334568;1.9700000286102295
1531048429649;-;-;-0.45984375;1.2406201;10.279425;-0.07639266;-0.06439943;-0.056204528;-14.55;36.45;-41.550003;22.31986;-7.9580646;-1.0147961;1020.74255;-;-;51.52506211;-0.1334568;1.9700000286102295
1531048429657;-;-;-0.5508545;1.3028907;9.857901;-0.072131604;-0.09262894;-0.045019254;-15.750001;38.4;-40.95;22.40838;-7.6771307;-1.0457804;1020.74255;-;-;51.52506211;-0.1334568;1.9700000286102295
1531048429668;-;-;-0.4263135;1.336421;9.455538;-0.13391694;-0.12405424;-0.013593949;-15.750001;38.4;-40.95;22.40838;-7.6771307;-1.0457804;1020.74255;-;-;51.52506211;-0.1334568;1.9700000286102295
1531048429678;-;-;-0.12933107;1.3843213;9.829161;-0.17919068;-0.13577215;-0.026909756;-16.5;37.050003;-40.95;22.475512;-7.5890017;-0.9740968;1020.74255;-;-;51.52506211;-0.1334568;1.9700000286102295
1531048429688;-;-;0.014370117;1.2597803;10.126143;-0.20049597;-0.15175112;-0.0375624;-16.5;37.050003;-40.95;22.475512;-7.5890017;-0.9740968;1020.74255;-;-;51.52506211;-0.1334568;1.9700000286102295
1531048429698;-;-;-0.06706055;1.2549903;10.217154;-0.17226645;-0.15015322;-0.0375624;-17.25;38.25;-41.550003;22.520657;-7.4122925;-0.8300767;1020.73694;-;-;51.52506211;-0.1334568;1.9700000286102295
1531048429709;-;-;-0.043110352;1.1591895;10.6817875;-0.063076854;-0.15334901;-0.034366608;-17.25;38.25;-41.550003;22.520657;-7.4122925;-0.8300767;1020.73694;-;-;51.52506211;-0.1334568;1.9700000286102295
1531048429718;-;-;-0.119750984;1.101709;10.624307;0.031199051;-0.15228374;-0.023713961;-17.7;38.550003;-41.100002;22.586739;-7.20122;-0.6674522;1020.73694;-;-;51.52506211;-0.1334568;1.9700000286102295
1531048429728;-;-;-0.14849122;1.1352394;10.6817875;0.17181396;-0.16453429;-0.016257111;-17.7;38.550003;-41.100002;22.586739;-7.20122;-0.6674522;1020.73694;-;-;51.52506211;-0.1334568;1.9700000286102295
1531048429739;-;-;-0.019160157;1.2022998;10.408755;0.26662248;-0.17199114;-0.014659214;-16.35;35.850002;-40.2;22.651733;-7.1750255;-0.4988677;1020.73694;-;-;51.52506211;-0.1334568;1.9700000286102295
1531048429751;-;-;0.014370117;1.2166699;9.85311;0.31722167;-0.141637;-0.012552257;-16.35;35.850002;-40.2;22.651733;-7.1750255;-0.4988677;1020.73694;-;-;51.52506211;-0.1334568;1.9700000286102295
1531048429760;-;-;0.009580079;1.3028907;9.465117;0.29485112;-0.086775884;-0.009356463;-16.650002;36.45;-41.100002;22.6953;-7.408969;-0.3108353;1020.73694;-;-;51.52506211;-0.1334568;1.9700000286102295
1531048429771;-;-;-0.028740235;1.4130616;9.172925;0.20004259;-0.058013745;-0.023737533;-16.650002;36.45;-41.100002;22.6953;-7.408969;-0.3108353;1020.73694;-;-;51.52506211;-0.1334568;1.9700000286102295
1531048429780;-;-;-0.1101709;1.3555812;9.053174;0.08499403;-0.0308495;-0.018943843;-16.800001;38.100002;-40.95;22.72729;-7.7580366;-0.17502066;1020.73694;-;-;51.52506211;-0.1334568;1.9700000286102295
1531048429790;-;-;0.033530276;1.3028907;9.196876;-0.025793472;4.3168664E-5;-0.02054174;-16.800001;38.100002;-40.95;22.72729;-7.7580366;-0.17502066;1020.73694;-;-;51.52506211;-0.1334568;1.9700000286102295
1531048429800;-;-;-0.014370117;1.3268409;9.613608;-0.097698815;0.005902123;-0.02267227;-16.95;36.9;-40.65;22.757772;-7.9378037;-0.12371841;1020.7408;-;-;51.52506211;-0.1334568;1.9700000286102295
1531048429811;-;-;0.06227051;1.3028907;9.833951;-0.11527568;0.0037715943;-0.04024913;-16.95;36.9;-40.65;22.757772;-7.9378037;-0.12371841;1020.7408;-;-;51.52506211;-0.1334568;1.9700000286102295
1531048429821;-;-;-0.14849122;1.341211;10.083033;-0.091839865;-0.02126212;-0.045575455;-17.25;38.25;-43.050003;22.783178;-7.8842072;-0.131722;1020.7408;-;-;51.52506211;-0.1334568;1.9700000286102295
1531048429831;-;-;-0.119750984;1.2789404;10.092612;-0.052425083;-0.046828467;-0.05356494;-17.25;38.25;-43.050003;22.783178;-7.8842072;-0.131722;1020.7408;-;-;51.52506211;-0.1334568;1.9700000286102295
1531048429842;-;-;-0.05748047;1.2933106;9.862691;-0.022065047;-0.073992714;-0.04397756;-16.800001;36.600002;-40.5;22.83254;-7.755453;-0.13125105;1020.7408;-;-;51.52506211;-0.1334568;1.9700000286102295
1531048429852;-;-;-0.081430666;1.341211;9.814791;-0.009281872;-0.099559054;-0.06901127;-16.800001;36.600002;-40.5;22.83254;-7.755453;-0.13125105;1020.7408;-;-;51.52506211;-0.1334568;1.9700000286102295
1531048429862;-;-;-0.19160157;1.1879297;9.6615095;-0.00874924;-0.105950646;-0.045575455;-16.35;36.15;-39.9;22.890093;-7.7052164;-0.08000502;1020.7408;-;-;51.52506211;-0.1334568;1.9700000286102295
1531048429872;-;-;-0.1820215;1.2310401;9.7142;-0.021532414;-0.095298;-0.045042824;-17.7;35.850002;-39.45;22.890093;-7.7052164;-0.08000502;1020.7408;-;-;51.52506211;-0.1334568;1.9700000286102295
1531048429883;-;-;-0.07664063;1.2022998;9.704619;-0.04709876;-0.09636326;-0.022139637;-17.7;35.850002;-39.45;22.970943;-7.695794;0.020667939;1020.7408;-;-;51.52506211;-0.1334568;1.9700000286102295
1531048429893;-;-;0.14370118;1.2502003;9.74294;-0.062012464;-0.08997168;-0.03918387;-15.450001;36.600002;-40.050003;22.970943;-7.695794;0.020667939;1020.7408;-;-;51.52506211;-0.1334568;1.9700000286102295
1531048429903;-;-;0.22513184;1.3076807;9.881851;-0.076926164;-0.012207372;-0.047705986;-15.450001;36.600002;-40.050003;23.031466;-7.6645536;0.12288608;1020.7414;-;-;51.52506211;-0.1334568;1.9700000286102295
1531048429914;-;-;0.23950197;1.2837305;9.944121;-0.06840405;-0.010609476;-0.060489155;-16.050001;36.300003;-40.5;23.088102;-7.593675;0.19076197;1020.7414;-;-;51.52506211;-0.1334568;1.9700000286102295
1531048429925;-;-;0.12454102;1.3747413;9.996812;-0.06254509;-0.02339265;-0.082327075;-16.050001;36.300003;-40.5;23.088102;-7.593675;0.19076197;1020.7414;-;-;51.52506211;-0.1334568;1.9700000286102295
1531048429934;-;-;0.06227051;1.4274317;9.920172;-0.059349302;-0.03351266;-0.08871867;-16.800001;36.600002;-40.95;23.157776;-7.5172;0.19174169;1020.7414;-;-;51.52506211;-0.1334568;1.9700000286102295
1531048429944;-;-;-0.06706055;1.3891114;10.020762;-0.04656613;-0.061742168;-0.067413375;-16.800001;36.600002;-40.95;23.157776;-7.5172;0.19174169;1020.7414;-;-;51.52506211;-0.1334568;1.9700000286102295
1531048429954;-;-;-0.07664063;1.3891114;9.905801;-0.048696656;-0.06973165;-0.07380496;-18.150002;37.050003;-40.050003;23.253754;-7.456836;0.21879442;1020.7414;-;-;51.52506211;-0.1334568;1.9700000286102295
1531048429964;-;-;0.17244141;1.3555812;9.75252;-0.06467562;-0.06919902;-0.06794601;-18.150002;37.050003;-40.050003;23.253754;-7.456836;0.21879442;1020.7414;-;-;51.52506211;-0.1334568;1.9700000286102295
1531048429977;-;-;0.06227051;1.3076807;9.6758795;-0.08598091;-0.06973165;-0.07220706;-15.6;37.5;-39.9;23.34041;-7.4024987;0.28830254;1020.7414;-;-;51.52506211;-0.1334568;1.9700000286102295
1531048429985;-;-;-0.047900394;1.331631;9.79084;-0.11101463;-0.06866639;-0.06475022;-15.6;37.5;-39.9;23.34041;-7.4024987;0.28830254;1020.7414;-;-;51.52506211;-0.1334568;1.9700000286102295
1531048429996;-;-;0.13891114;1.341211;9.79084;-0.10622094;-0.05055689;-0.068478644;-15.450001;36.300003;-40.95;23.429562;-7.3053703;0.35731497;1020.7414;-;-;51.52506211;-0.1334568;1.9700000286102295
1531048430005;-;-;0.19160157;1.3843213;9.862691;-0.09503566;-0.053752687;-0.07700076;-15.450001;36.300003;-40.95;23.429562;-7.3053703;0.35731497;1020.73975;-;-;51.52506211;-0.1334568;1.9700000286102295
1531048430015;-;-;0.21555176;1.331631;9.82437;-0.09929672;-0.051089525;-0.085522875;-16.050001;37.050003;-39.600002;23.516754;-7.179714;0.40766475;1020.73975;-;-;51.52506211;-0.1334568;1.9700000286102295
1531048430025;-;-;0.20118165;1.2502003;9.891431;-0.10941673;-0.05268742;-0.08871867;-16.050001;37.050003;-39.600002;23.516754;-7.179714;0.40766475;1020.73975;-;-;51.52506211;-0.1334568;1.9700000286102295
1531048430036;-;-;0.1341211;1.3795313;9.924961;-0.11687358;-0.044165306;-0.08179445;-18.150002;37.050003;-40.5;23.6164;-7.0676913;0.45527455;1020.73975;-;-;51.52506211;-0.1334568;1.9700000286102295
1531048430045;-;-;0.05748047;1.3507911;10.145303;-0.107818834;-0.051622156;-0.063684955;-18.150002;37.050003;-40.5;23.6164;-7.0676913;0.45527455;1020.73975;-;-;51.52506211;-0.1334568;1.9700000286102295
1531048430055;-;-;0.014370117;1.2597803;10.111773;-0.077991426;-0.051622156;-0.06421758;-16.650002;37.5;-38.25;23.721975;-6.938439;0.497839;1020.73975;-;-;51.52506211;-0.1334568;1.9700000286102295
1531048430065;-;-;0.0;1.2502003;10.174044;-0.043370336;-0.032447398;-0.057293363;-16.650002;37.5;-38.25;23.721975;-6.938439;0.497839;1020.73975;-;-;51.52506211;-0.1334568;1.9700000286102295
1531048430076;-;-;-0.028740235;1.22146;10.049502;-0.0044881823;-0.024457913;-0.041314397;-17.1;36.600002;-39.300003;23.808958;-6.84348;0.54148644;1020.73975;-;-;51.52506211;-0.1334568;1.9700000286102295
1531048430085;-;-;-0.028740235;1.1448194;9.953702;0.017882371;-0.019131592;-0.030661752;-17.1;36.600002;-39.300003;23.808958;-6.84348;0.54148644;1020.73975;-;-;51.52506211;-0.1334568;1.9700000286102295
1531048430095;-;-;-0.1101709;1.1496094;9.6615095;0.017882371;-0.017533693;-0.029596489;-14.400001;37.65;-41.25;23.872805;-6.825163;0.5644265;1020.7375;-;-;51.52506211;-0.1334568;1.9700000286102295
1531048430105;-;-;-0.16286133;1.1783496;9.627979;-0.0055534467;-0.007946314;-0.008823832;-14.400001;37.65;-41.25;23.872805;-6.825163;0.5644265;1020.7375;-;-;51.52506211;-0.1334568;1.9700000286102295
1531048430116;-;-;-0.028740235;1.0681788;9.77647;-0.03538085;-0.012740005;-0.0066933027;-16.95;37.2;-41.100002;23.907234;-6.843089;0.5739549;1020.7375;-;-;51.52506211;-0.1334568;1.9700000286102295
1531048430126;-;-;0.081430666;1.1304493;9.977652;-0.03964191;-0.0074136825;-0.0045627737;-16.95;37.2;-41.100002;23.907234;-6.843089;0.5739549;1020.7375;-;-;51.52506211;-0.1334568;1.9700000286102295
1531048430136;-;-;0.086220704;1.0873389;10.073453;-0.031652424;4.3168664E-5;-0.0045627737;-15.6;36.9;-40.65;23.924759;-6.813916;0.57917637;1020.7375;-;-;51.52506211;-0.1334568;1.9700000286102295
1531048430146;-;-;-0.05748047;1.1496094;10.111773;-0.006618711;-0.010076843;-0.010421728;-15.6;36.9;-40.65;23.924759;-6.813916;0.57917637;1020.7375;-;-;51.52506211;-0.1334568;1.9700000286102295
1531048430157;-;-;-0.07664063;1.1543995;10.121353;0.014686578;-0.02818634;-0.017345946;-15.750001;35.7;-39.300003;23.93841;-6.7761316;0.5827646;1020.7375;-;-;51.52506211;-0.1334568;1.9700000286102295
1531048430166;-;-;0.023950197;1.1735597;10.145303;0.038122397;-0.036708456;7.635488E-4;-15.750001;35.7;-39.300003;23.93841;-6.7761316;0.5827646;1020.7375;-;-;51.52506211;-0.1334568;1.9700000286102295
1531048430176;-;-;0.100590825;1.2406201;9.972861;0.045046616;-0.061209537;-0.017345946;-16.35;35.850002;-39.9;23.958439;-6.779497;0.60193133;1020.7375;-;-;51.52506211;-0.1334568;1.9700000286102295
1531048430187;-;-;0.1101709;1.2645704;9.958491;0.039720293;-0.06919902;-0.008291199;-16.35;35.850002;-39.9;23.958439;-6.779497;0.60193133;1020.7375;-;-;51.52506211;-0.1334568;1.9700000286102295
1531048430199;-;-;0.09101075;1.1160791;9.814791;0.03226344;-0.08358009;-0.01574805;-16.650002;37.800003;-40.2;23.975946;-6.8248944;0.66232204;1020.7336;-;-;51.52506211;-0.1334568;1.9700000286102295
1531048430208;-;-;0.10538086;1.0873389;9.877061;0.016284473;-0.06866639;-0.035455443;-16.650002;37.800003;-40.2;23.975946;-6.8248944;0.66232204;1020.7336;-;-;51.52506211;-0.1334568;1.9700000286102295
1531048430219;-;-;-0.0047900393;1.1304493;9.910591;-0.006086079;-0.05694848;-0.055695467;-14.85;36.9;-39.9;24.013256;-6.8639355;0.75134885;1020.7336;-;-;51.52506211;-0.1334568;1.9700000286102295
1531048430229;-;-;0.086220704;1.1687696;9.872271;-0.00395555;-0.051622156;-0.0562281;-14.85;36.9;-39.9;24.013256;-6.8639355;0.75134885;1020.7336;-;-;51.52506211;-0.1334568;1.9700000286102295
1531048430239;-;-;0.1101709;1.1448194;9.79563;0.0035013014;-0.04043688;-0.046108086;-15.450001;36.600002;-38.100002;24.074284;-6.870641;0.8221051;1020.7336;-;-;51.52506211;-0.1334568;1.9700000286102295
1531048430249;-;-;0.12454102;1.1496094;9.733359;0.0050983867;-0.04523605;-0.04453208;-15.450001;36.600002;-38.100002;24.074284;-6.870641;0.8221051;1020.7336;-;-;51.52506211;-0.1334568;1.9700000286102295
1531048430259;-;-;0.25387207;1.2741505;9.72857;-0.0023584645;-0.044170786;-0.057847887;-14.55;36.15;-38.25;24.13467;-6.8690357;0.8668267;1020.7336;-;-;51.52506211;-0.1334568;1.9700000286102295
1531048430270;-;-;0.21076173;1.2597803;9.623189;-0.008750051;-0.051627636;-0.058380518;-15.150001;36.600002;-40.050003;24.13467;-6.8690357;0.8668267;1020.7336;-;-;51.52506211;-0.1334568;1.9700000286102295
1531048430280;-;-;0.18681154;1.2597803;9.594449;-0.022065857;-0.06387818;-0.07595738;-15.150001;36.600002;-40.050003;24.194902;-6.8778434;0.9087516;1020.7336;-;-;51.52506211;-0.1334568;1.9700000286102295
1531048430290;-;-;0.1820215;1.1927198;9.642349;-0.038577456;-0.07026976;-0.07915317;-14.1;36.300003;-39.300003;24.194902;-6.8778434;0.9087516;1020.7336;-;-;51.52506211;-0.1334568;1.9700000286102295
1531048430300;-;-;0.34488282;1.1831397;9.699829;-0.06520907;-0.06654134;-0.08980582;-14.1;36.300003;-39.300003;24.276207;-6.862942;0.9685972;1020.74286;-;-;51.52506211;-0.1334568;1.9700000286102295
1531048430311;-;-;0.3161426;1.2597803;9.73815;-0.07160065;-0.05961712;-0.09406688;-13.950001;35.100002;-39.45;24.377182;-6.818876;1.031158;1020.74286;-;-;51.52506211;-0.1334568;1.9700000286102295
1531048430321;-;-;0.100590825;1.1639795;9.81;-0.08278593;-0.05216027;-0.09459951;-13.950001;35.100002;-39.45;24.377182;-6.818876;1.031158;1020.74286;-;-;51.52506211;-0.1334568;1.9700000286102295
1531048430331;-;-;0.1101709;1.21188;10.001602;-0.0790575;-0.053225532;-0.084479496;-15.3;37.5;-39.9;24.488325;-6.740781;1.0827634;1020.74286;-;-;51.52506211;-0.1334568;1.9700000286102295
1531048430342;-;-;0.081430666;1.22146;10.092612;-0.0625459;-0.04044236;-0.08980582;-15.3;37.5;-39.9;24.488325;-6.740781;1.0827634;1020.74286;-;-;51.52506211;-0.1334568;1.9700000286102295
1531048430351;-;-;0.16765137;1.2358302;10.078242;-0.056686953;-0.026061287;-0.07915317;-14.55;35.850002;-38.7;24.591066;-6.6581297;1.1299374;1020.74286;-;-;51.52506211;-0.1334568;1.9700000286102295
1531048430361;-;-;0.27303225;1.2166699;10.068663;-0.041240618;-0.011147587;-0.07009843;-14.55;35.850002;-38.7;24.591066;-6.6581297;1.1299374;1020.74286;-;-;51.52506211;-0.1334568;1.9700000286102295
1531048430371;-;-;0.20118165;1.22625;10.015972;-0.042305883;-0.0031581027;-0.062641576;-15.450001;36.0;-40.5;24.683071;-6.6032867;1.145341;1020.74286;-;-;51.52506211;-0.1334568;1.9700000286102295
1531048430381;-;-;0.1580713;1.2645704;10.126143;-0.044436414;-0.016473908;-0.052521564;-15.450001;36.0;-40.5;24.683071;-6.6032867;1.145341;1020.74286;-;-;51.52506211;-0.1334568;1.9700000286102295
1531048430393;-;-;0.17244141;1.2693604;10.135723;-0.0343164;-0.026061287;-0.04453208;-15.450001;35.25;-38.850002;24.757524;-6.5565166;1.1452172;1020.7493;-;-;51.52506211;-0.1334568;1.9700000286102295
1531048430403;-;-;0.038320314;1.2166699;10.097403;-0.016739534;-0.023398127;-0.038673125;-15.450001;35.25;-38.850002;24.757524;-6.5565166;1.1452172;1020.7493;-;-;51.52506211;-0.1334568;1.9700000286102295
1531048430414;-;-;0.028740235;1.1831397;10.030342;0.0050983867;-0.016473908;-0.024824686;-14.250001;35.850002;-38.25;24.815723;-6.5215764;1.1633022;1020.7493;-;-;51.52506211;-0.1334568;1.9700000286102295
1531048430423;-;-;0.07185059;1.2070899;10.068663;0.016816296;-0.012745483;-0.0029867655;-14.250001;35.850002;-38.25;24.815723;-6.5215764;1.1633022;1020.7493;-;-;51.52506211;-0.1334568;1.9700000286102295
1531048430434;-;-;0.1820215;1.1735597;9.968072;0.028534206;0.0016355873;0.008198512;-16.35;37.2;-39.0;24.842762;-6.5208645;1.1807662;1020.7493;-;-;51.52506211;-0.1334568;1.9700000286102295
1531048430443;-;-;0.16286133;1.1879297;9.81958;0.02959947;-0.0020928383;0.008731144;-16.35;37.2;-39.0;24.842762;-6.5208645;1.1807662;1020.7493;-;-;51.52506211;-0.1334568;1.9700000286102295
1531048430454;-;-;0.15328126;1.0681788;9.72857;0.026403677;-0.0068865283;0.016187996;-14.700001;34.95;-40.050003;24.831684;-6.548751;1.1868383;1020.7493;-;-;51.52506211;-0.1334568;1.9700000286102295
1531048430464;-;-;0.10538086;1.1112891;9.78605;0.028534206;3.7690625E-5;0.026840638;-14.700001;34.95;-40.050003;24.831684;-6.548751;1.1868383;1020.7493;-;-;51.52506211;-0.1334568;1.9700000286102295
1531048430474;-;-;0.13891114;1.092129;9.74294;0.016283663;-0.009017058;0.025242742;-16.35;36.9;-40.2;24.808107;-6.5810137;1.1900517;1020.7493;-;-;51.52506211;-0.1334568;1.9700000286102295
1531048430485;-;-;0.1101709;1.0633887;9.800421;0.0066962834;-0.022332862;0.018318523;-16.35;36.9;-40.2;24.808107;-6.5810137;1.1900517;1020.7493;-;-;51.52506211;-0.1334568;1.9700000286102295
1531048430494;-;-;0.1341211;1.1208692;9.78605;0.0072289156;-0.022865495;0.0145900985;-17.25;36.15;-40.2;24.77575;-6.5997224;1.2012359;1020.74664;-;-;51.52506211;-0.1334568;1.9700000286102295
1531048430505;-;-;0.06706055;1.1352394;9.929751;0.00350049;-0.02393076;0.016187996;-17.25;36.15;-40.2;24.77575;-6.5997224;1.2012359;1020.74664;-;-;51.52506211;-0.1334568;1.9700000286102295
1531048430515;-;-;0.10538086;1.0873389;9.934542;0.0045657544;-0.023398127;0.010861672;-18.0;35.850002;-39.9;24.758245;-6.604297;1.2340266;1020.74664;-;-;51.52506211;-0.1334568;1.9700000286102295
1531048430525;-;-;0.19639161;1.1064991;9.862691;-0.0076847863;-0.021267598;0.0066006146;-18.0;35.850002;-39.9;24.758245;-6.604297;1.2340266;1020.74664;-;-;51.52506211;-0.1334568;1.9700000286102295
1531048430535;-;-;0.20118165;1.1400293;9.766891;-0.0012932001;0.009625072;0.0018069246;-15.900001;38.25;-40.65;24.743015;-6.6075783;1.2610861;1020.74664;-;-;51.52506211;-0.1334568;1.9700000286102295
1531048430545;-;-;0.10538086;1.1352394;9.81958;-0.0023584645;0.01441876;-0.01630257;-15.900001;38.25;-40.65;24.743015;-6.6075783;1.2610861;1020.74664;-;-;51.52506211;-0.1334568;1.9700000286102295
1531048430556;-;-;0.12933107;1.1400293;9.70941;-0.0071521546;0.027734566;-0.011508881;-18.150002;37.350002;-40.5;24.735271;-6.608622;1.2663753;1020.74664;-;-;51.52506211;-0.1334568;1.9700000286102295
1531048430566;-;-;0.1101709;1.092129;9.800421;-0.028990075;0.025604038;-0.00884572;-18.150002;37.350002;-40.5;24.735271;-6.608622;1.2663753;1020.74664;-;-;51.52506211;-0.1334568;1.9700000286102295
1531048430576;-;-;0.119750984;1.1496094;9.891431;-0.042838514;0.016549291;-0.010976248;-16.35;37.5;-38.7;24.739773;-6.602195;1.2384754;1020.74664;-;-;51.52506211;-0.1334568;1.9700000286102295
1531048430586;-;-;0.14849122;1.1256592;9.910591;-0.06041538;-0.01913707;-0.020030998;-16.35;37.5;-38.7;24.739773;-6.602195;1.2384754;1020.74664;-;-;51.52506211;-0.1334568;1.9700000286102295
1531048430596;-;-;0.17723145;1.1352394;10.068663;-0.06307854;-0.025528656;-0.038140494;-15.750001;36.600002;-40.050003;24.746347;-6.5575;1.2162267;1020.7498;-;-;51.52506211;-0.1334568;1.9700000286102295
1531048430606;-;-;0.14370118;1.1304493;10.150093;-0.050295368;-0.044170786;-0.041868918;-15.750001;36.600002;-40.050003;24.746347;-6.5575;1.2162267;1020.7498;-;-;51.52506211;-0.1334568;1.9700000286102295
1531048430617;-;-;0.081430666;1.1352394;10.116563;-0.031120604;-0.08837926;-0.04399945;-14.400001;35.7;-39.300003;24.781172;-6.4860106;1.2434988;1020.7498;-;-;51.52506211;-0.1334568;1.9700000286102295
1531048430627;-;-;0.100590825;1.0633887;10.097403;3.0469662E-4;-0.08891189;-0.049858402;-14.400001;35.7;-39.300003;24.781172;-6.4860106;1.2434988;1020.7498;-;-;51.52506211;-0.1334568;1.9700000286102295
1531048430638;-;-;0.119750984;1.1927198;9.982442;0.03652369;-0.12513089;-0.043466814;-15.450001;37.350002;-38.850002;24.842299;-6.4380107;1.312954;1020.7498;-;-;51.52506211;-0.1334568;1.9700000286102295
1531048430648;-;-;0.22992188;1.2166699;9.7621;0.038654216;-0.11341297;-0.042401552;-15.450001;37.350002;-38.850002;24.842299;-6.4380107;1.312954;1020.7498;-;-;51.52506211;-0.1334568;1.9700000286102295
1531048430658;-;-;0.2778223;1.2022998;9.77168;0.017881561;-0.071335025;-0.042934183;-15.450001;36.300003;-39.300003;24.912374;-6.456626;1.4285103;1020.7498;-;-;51.52506211;-0.1334568;1.9700000286102295
1531048430669;-;-;0.29698244;1.22146;9.78605;-0.0044889934;-0.059084486;-0.048260506;-15.150001;35.25;-39.600002;24.912374;-6.456626;1.4285103;1020.7498;-;-;51.52506211;-0.1334568;1.9700000286102295
1531048430678;-;-;0.34488282;1.2502003;9.70941;-0.0343164;-0.018604437;-0.05465209;-15.150001;35.25;-39.600002;24.976982;-6.4930773;1.5253643;1020.7498;-;-;51.52506211;-0.1334568;1.9700000286102295
1531048430689;-;-;0.3544629;1.1831397;9.72857;-0.06041538;3.7690625E-5;-0.0631742;-15.3;36.9;-41.850002;24.976982;-6.4930773;1.5253643;1020.7482;-;-;51.52506211;-0.1334568;1.9700000286102295
1531048430699;-;-;0.21555176;1.1448194;9.877061;-0.088644885;0.015484026;-0.07329422;-15.3;36.9;-41.850002;25.04033;-6.4708095;1.561785;1020.7482;-;-;51.52506211;-0.1334568;1.9700000286102295
1531048430709;-;-;0.21555176;1.2070899;10.059082;-0.08544909;0.018679818;-0.067435265;-15.900001;35.100002;-39.45;25.117197;-6.390127;1.5454245;1020.7482;-;-;51.52506211;-0.1334568;1.9700000286102295
1531048430719;-;-;0.13891114;1.1591895;10.174044;-0.050828;-0.0047559994;-0.047727875;-15.900001;35.100002;-39.45;25.117197;-6.390127;1.5454245;1020.7482;-;-;51.52506211;-0.1334568;1.9700000286102295
1531048430729;-;-;0.09101075;1.1112891;10.193204;-0.023131121;-0.0020928383;-0.042401552;-14.250001;37.5;-40.65;25.18778;-6.309329;1.5261052;1020.7482;-;-;51.52506211;-0.1334568;1.9700000286102295
1531048430740;-;-;0.16765137;1.1879297;10.140513;0.016283663;-0.0361813;-0.031216275;-14.250001;37.5;-40.65;25.18778;-6.309329;1.5261052;1020.7482;-;-;51.52506211;-0.1334568;1.9700000286102295
1531048430750;-;-;0.100590825;1.1352394;10.073453;0.018946825;-0.04257289;-0.027487848;-14.250001;37.2;-39.45;25.23373;-6.2981305;1.5425775;1020.7482;-;-;51.52506211;-0.1334568;1.9700000286102295
1531048430760;-;-;0.12933107;1.1064991;9.857901;0.026402928;-0.045773737;-0.020051202;-14.250001;37.2;-39.45;25.23373;-6.2981305;1.5425775;1020.7482;-;-;51.52506211;-0.1334568;1.9700000286102295
1531048430770;-;-;0.1820215;1.0777588;9.944121;0.018946076;-0.04417584;-0.009931189;-17.550001;37.050003;-39.600002;25.26376;-6.3246393;1.5949304;1020.7482;-;-;51.52506211;-0.1334568;1.9700000286102295
1531048430781;-;-;0.1341211;1.096919;10.015972;-0.003424478;-0.023403184;-0.016322777;-17.550001;37.050003;-39.600002;25.26376;-6.3246393;1.5949304;1020.7482;-;-;51.52506211;-0.1334568;1.9700000286102295
1531048430791;-;-;0.17244141;1.0106983;9.996812;-0.006620271;-0.02500108;-0.009931189;-16.050001;35.7;-38.850002;25.276396;-6.3370852;1.6407348;1020.74176;-;-;51.52506211;-0.1334568;1.9700000286102295
1531048430801;-;-;0.17723145;1.1831397;9.905801;0.0040323734;-0.032457933;0.00178672;-16.050001;35.7;-38.850002;25.276396;-6.3370852;1.6407348;1020.74176;-;-;51.52506211;-0.1334568;1.9700000286102295
1531048430811;-;-;0.20118165;1.1256592;9.982442;0.01734818;-0.03671899;1.8882332E-4;-15.750001;36.0;-39.300003;25.280365;-6.333856;1.672859;1020.74176;-;-;51.52506211;-0.1334568;1.9700000286102295
1531048430822;-;-;0.22992188;1.0681788;9.968072;0.026402928;-0.046839003;0.009776203;-15.750001;36.0;-39.300003;25.280365;-6.333856;1.672859;1020.74176;-;-;51.52506211;-0.1334568;1.9700000286102295
1531048430832;-;-;0.2682422;1.0298585;9.996812;0.030663986;-0.040447414;0.012971995;-14.85;36.9;-40.65;25.276731;-6.3519797;1.7176526;1020.74176;-;-;51.52506211;-0.1334568;1.9700000286102295
1531048430842;-;-;0.17244141;1.1639795;9.862691;0.024272399;-0.033523194;0.0060477783;-14.85;36.9;-40.65;25.276731;-6.3519797;1.7176526;1020.74176;-;-;51.52506211;-0.1334568;1.9700000286102295
1531048430852;-;-;0.25866213;1.1687696;9.79084;0.0136197535;-0.04896953;-8.7644113E-4;-15.6;36.15;-40.2;25.270357;-6.383999;1.7730818;1020.74176;-;-;51.52506211;-0.1334568;1.9700000286102295
1531048430863;-;-;0.24908204;1.1543995;9.78605;0.0098913275;-0.05589375;0.004982513;-15.6;36.15;-40.2;25.270357;-6.383999;1.7730818;1020.74176;-;-;51.52506211;-0.1334568;1.9700000286102295
1531048430873;-;-;0.18681154;1.1064991;9.881851;0.0045650057;-0.07080745;-0.0024743378;-15.6;36.45;-38.7;25.278687;-6.4041953;1.8244858;1020.74176;-;-;51.52506211;-0.1334568;1.9700000286102295
1531048430883;-;-;0.22992188;1.0538087;9.901011;0.005097638;-0.07293798;0.00178672;-15.6;36.45;-38.7;25.278687;-6.4041953;1.8244858;1020.733;-;-;51.52506211;-0.1334568;1.9700000286102295
1531048430893;-;-;0.19160157;1.1400293;9.877061;0.012554488;-0.061752703;1.8882332E-4;-15.150001;36.600002;-37.65;25.293564;-6.409221;1.8976898;1020.733;-;-;51.52506211;-0.1334568;1.9700000286102295
1531048430904;-;-;0.2203418;1.1400293;9.833951;0.009358696;-0.047371633;0.00658041;-15.150001;36.600002;-37.65;25.293564;-6.409221;1.8976898;1020.733;-;-;51.52506211;-0.1334568;1.9700000286102295
1531048430915;-;-;0.244292;1.0633887;9.905801;0.0066955346;-0.031392667;-0.0062027634;-14.55;36.9;-40.65;25.310228;-6.4173017;1.9692392;1020.733;-;-;51.52506211;-0.1334568;1.9700000286102295
1531048430924;-;-;0.27303225;1.1591895;9.85311;0.0029671087;-0.019142127;-0.008865925;-14.55;36.9;-40.65;25.310228;-6.4173017;1.9692392;1020.733;-;-;51.52506211;-0.1334568;1.9700000286102295
1531048430935;-;-;0.28740236;1.1496094;9.7812605;-0.0018265813;-0.008489481;-0.016855408;-15.150001;37.350002;-40.95;25.322157;-6.424334;2.009509;1020.733;-;-;51.52506211;-0.1334568;1.9700000286102295
1531048430945;-;-;0.3305127;1.1687696;9.915381;-0.0023592135;-0.004228424;-0.01951857;-15.150001;37.350002;-40.95;25.322157;-6.424334;2.009509;1020.733;-;-;51.52506211;-0.1334568;1.9700000286102295
1531048430955;-;-;0.26345217;1.1783496;9.85311;-0.008218168;0.0053589563;-0.022714363;-14.700001;37.050003;-39.300003;25.33799;-6.4199815;2.027196;1020.733;-;-;51.52506211;-0.1334568;1.9700000286102295
1531048430965;-;-;0.26345217;1.1208692;9.924961;-0.019936075;0.013881072;-0.025377525;-14.700001;37.050003;-39.300003;25.33799;-6.4199815;2.027196;1020.733;-;-;51.52506211;-0.1334568;1.9700000286102295
1531048430975;-;-;0.3065625;1.2070899;9.934542;-0.019403445;0.021870555;-0.02431226;-17.25;36.9;-39.45;25.36006;-6.408785;2.023766;1020.733;-;-;51.52506211;-0.1334568;1.9700000286102295
1531048430986;-;-;0.26345217;1.1400293;9.982442;-0.016740283;0.029860038;-0.026975421;-17.25;36.9;-39.45;25.36006;-6.408785;2.023766;1020.7303;-;-;51.52506211;-0.1334568;1.9700000286102295
1531048430996;-;-;0.22513184;1.1496094;10.015972;-0.01088133;0.03518636;-0.036030166;-16.95;36.9;-39.9;25.383497;-6.3875637;2.0011764;1020.7303;-;-;51.52506211;-0.1334568;1.9700000286102295
1531048431007;-;-;0.20597169;1.1064991;9.944121;-0.011946593;0.021337923;-0.021116467;-16.95;36.9;-39.9;25.383497;-6.3875637;2.0011764;1020.7303;-;-;51.52506211;-0.1334568;1.9700000286102295
1531048431017;-;-;0.2203418;1.1496094;9.910591;-0.006620271;-0.0010326303;-0.016855408;-15.750001;37.050003;-40.5;25.411499;-6.371739;1.9623587;1020.7303;-;-;51.52506211;-0.1334568;1.9700000286102295
1531048431028;-;-;0.23471193;1.1352394;9.848321;-0.004489742;-0.002097895;-0.013659615;-14.55;35.850002;-38.25;25.429924;-6.366002;1.9500605;1020.7303;-;-;51.52506211;-0.1334568;1.9700000286102295
1531048431037;-;-;0.24908204;1.1256592;9.79563;0.001369212;-0.0026305271;-0.010996453;-14.55;35.850002;-38.25;25.429924;-6.366002;1.9500605;1020.7303;-;-;51.52506211;-0.1334568;1.9700000286102295
1531048431048;-;-;0.31135255;1.1687696;9.80521;-0.0012939491;-0.014881069;-0.009398557;-14.85;34.800003;-39.9;25.43959;-6.3618264;1.9587244;1020.7303;-;-;51.52506211;-0.1334568;1.9700000286102295
1531048431058;-;-;0.39278322;1.2022998;9.74294;-0.011946593;-0.009022114;-0.016855408;-14.85;34.800003;-39.9;25.43959;-6.3618264;1.9587244;1020.7303;-;-;51.52506211;-0.1334568;1.9700000286102295
1531048431068;-;-;0.38320315;1.1448194;9.81958;-0.01620765;-4.999981E-4;-0.023246994;-15.150001;36.300003;-39.600002;25.43959;-6.3618264;1.9587244;1020.7303;-;-;51.52506211;-0.1334568;1.9700000286102295
1531048431079;-;-;0.27303225;1.1256592;9.881851;-0.029523456;0.008022117;-0.020583834;-15.150001;36.300003;-39.600002;25.451643;-6.357556;1.9706665;1020.7303;-;-;51.52506211;-0.1334568;1.9700000286102295
1531048431089;-;-;0.31135255;1.1208692;9.944121;-0.037512943;0.0064242203;-0.018985936;-16.95;36.15;-37.800003;25.47595;-6.3313713;1.9635406;1020.73834;-;-;51.52506211;-0.1334568;1.9700000286102295
1531048431099;-;-;0.34009278;1.1208692;10.059082;-0.022599237;-0.0010326303;-0.017920673;-16.95;36.15;-37.800003;25.47595;-6.3313713;1.9635406;1020.73834;-;-;51.52506211;-0.1334568;1.9700000286102295
1531048431111;-;-;0.34488282;1.092129;10.092612;-0.015675018;5.6526635E-4;-0.024844892;-16.35;36.15;-39.9;25.498598;-6.2945523;1.9587383;1020.73834;-;-;51.52506211;-0.1334568;1.9700000286102295
1531048431121;-;-;0.29698244;1.1256592;9.948912;0.0024344765;-0.004761056;-0.017920673;-16.35;36.15;-39.9;25.498598;-6.2945523;1.9587383;1020.73834;-;-;51.52506211;-0.1334568;1.9700000286102295
1531048431132;-;-;0.27303225;1.1256592;9.829161;0.008826063;-0.004761056;-0.015790144;-15.900001;36.45;-39.45;25.522408;-6.2849746;1.9614981;1020.73834;-;-;51.52506211;-0.1334568;1.9700000286102295
1531048431142;-;-;0.23471193;1.1543995;9.83874;0.0061629023;-0.010620011;-0.00780066;-15.900001;36.45;-39.45;25.522408;-6.2849746;1.9614981;1020.73834;-;-;51.52506211;-0.1334568;1.9700000286102295
1531048431152;-;-;0.2778223;1.096919;9.73815;0.007228167;-0.015413701;-0.007268028;-16.050001;35.25;-39.600002;25.538155;-6.298575;1.9646673;1020.73834;-;-;51.52506211;-0.1334568;1.9700000286102295
1531048431162;-;-;0.28740236;1.1256592;9.77168;8.365799E-4;-0.020740023;-0.005137499;-16.050001;35.25;-39.600002;25.538155;-6.298575;1.9646673;1020.73834;-;-;51.52506211;-0.1334568;1.9700000286102295
1531048431172;-;-;0.3305127;1.1256592;9.920172;-0.0098160645;-0.01967476;-0.0040722345;-15.6;35.850002;-41.100002;25.54091;-6.30426;1.9808978;1020.73834;-;-;51.52506211;-0.1334568;1.9700000286102295
1531048431183;-;-;0.37362307;1.1208692;9.896221;-0.01088133;-0.010087378;-0.010996453;-15.6;35.850002;-41.100002;25.54091;-6.30426;1.9808978;1020.7449;-;-;51.52506211;-0.1334568;1.9700000286102295
1531048431193;-;-;0.3784131;1.1160791;10.059082;-0.014077122;-0.018076861;-0.023246994;-14.400001;37.050003;-38.850002;25.549076;-6.3015313;2.0016565;1020.7449;-;-;51.52506211;-0.1334568;1.9700000286102295
1531048431203;-;-;0.2921924;1.096919;10.001602;-0.0028918458;-0.023935817;-0.023246994;-14.400001;37.050003;-38.850002;25.549076;-6.3015313;2.0016565;1020.7449;-;-;51.52506211;-0.1334568;1.9700000286102295
1531048431214;-;-;0.3065625;1.1352394;9.972861;0.0040323734;-0.015413701;-0.031769108;-15.900001;37.2;-38.7;25.570059;-6.289613;2.019927;1020.7449;-;-;51.52506211;-0.1334568;1.9700000286102295
1531048431224;-;-;0.2778223;1.1543995;9.996812;0.0024344765;-0.027664242;-0.026975421;-15.900001;37.2;-38.7;25.570059;-6.289613;2.019927;1020.7449;-;-;51.52506211;-0.1334568;1.9700000286102295
1531048431234;-;-;0.34009278;1.096919;9.996812;0.007760799;-0.021805286;-0.020583834;-15.750001;35.7;-39.600002;25.601202;-6.2917757;2.042318;1020.7449;-;-;51.52506211;-0.1334568;1.9700000286102295
1531048431244;-;-;0.37362307;1.092129;9.901011;0.0040323734;-0.014348436;-0.024844892;-15.750001;35.7;-39.600002;25.601202;-6.2917757;2.042318;1020.7449;-;-;51.52506211;-0.1334568;1.9700000286102295
1531048431255;-;-;0.39278322;1.0873389;9.881851;-0.006620958;5.6063116E-4;-0.036048688;-15.450001;35.7;-39.600002;25.626162;-6.2990923;2.0651717;1020.7449;-;-;51.52506211;-0.1334568;1.9700000286102295
1531048431265;-;-;0.34488282;1.0825489;9.968072;-0.007686222;0.011745908;-0.04084238;-15.450001;35.7;-39.600002;25.626162;-6.2990923;2.0651717;1020.7449;-;-;51.52506211;-0.1334568;1.9700000286102295
1531048431275;-;-;0.24908204;1.1208692;9.987232;0.0066948477;0.0133438045;-0.04563607;-15.150001;36.0;-39.600002;25.66163;-6.2956033;2.067877;1020.7449;-;-;51.52506211;-0.1334568;1.9700000286102295
1531048431285;-;-;0.21076173;1.096919;9.905801;0.0024337901;0.010148011;-0.04137501;-15.150001;36.0;-39.600002;25.66163;-6.2956033;2.067877;1020.75146;-;-;51.52506211;-0.1334568;1.9700000286102295
1531048431297;-;-;0.2682422;1.0059083;9.79563;0.025336975;-0.0100920135;-0.03178763;-15.3;36.45;-38.7;25.705803;-6.2955008;2.048912;1020.75146;-;-;51.52506211;-0.1334568;1.9700000286102295
1531048431307;-;-;0.3305127;0.92926764;9.948912;0.05516438;-0.017016232;-0.030722367;-15.150001;35.7;-40.050003;25.742376;-6.3178515;2.0440664;1020.75146;-;-;51.52506211;-0.1334568;1.9700000286102295
1531048431318;-;-;0.2778223;1.0585986;9.733359;0.11748235;-0.060692076;-0.031255;-15.150001;35.7;-40.050003;25.742376;-6.3178515;2.0440664;1020.75146;-;-;51.52506211;-0.1334568;1.9700000286102295
1531048431328;-;-;0.26345217;1.0585986;9.469908;0.095111795;-0.0628226;-0.03338553;-16.650002;36.45;-39.45;25.78377;-6.4275484;2.0750957;1020.75146;-;-;51.52506211;-0.1334568;1.9700000286102295
1531048431339;-;-;0.23471193;1.0346485;9.364527;0.009890641;-0.00689622;-0.016341297;-16.650002;36.45;-39.45;25.78377;-6.4275484;2.0750957;1020.75146;-;-;51.52506211;-0.1334568;1.9700000286102295
1531048431350;-;-;0.22513184;1.1160791;9.604029;-0.0518947;0.01227854;-0.020602355;-16.35;35.4;-41.100002;25.817408;-6.4958935;2.117617;1020.75146;-;-;51.52506211;-0.1334568;1.9700000286102295
1531048431359;-;-;0.2778223;1.0106983;9.915381;-0.07905894;0.022931185;-0.03445079;-16.35;35.4;-41.100002;25.817408;-6.4958935;2.117617;1020.75146;-;-;51.52506211;-0.1334568;1.9700000286102295
1531048431370;-;-;0.28261232;1.0059083;10.217154;-0.070004195;0.010148011;-0.039244484;-15.900001;36.15;-38.7;25.838291;-6.4527745;2.100177;1020.75146;-;-;51.52506211;-0.1334568;1.9700000286102295
1531048431381;-;-;0.3065625;1.0825489;10.389595;-7.6200336E-4;-0.0100920135;-0.03178763;-15.900001;36.15;-38.7;25.847368;-6.430393;2.0924914;1020.7535;-;-;51.52506211;-0.1334568;1.9700000286102295
1531048431391;-;-;0.25387207;1.1448194;10.289004;0.024271712;-0.022875186;-0.026461309;-14.55;35.850002;-41.550003;25.88802;-6.382062;2.072654;1020.7535;-;-;51.52506211;-0.1334568;1.9700000286102295
1531048431402;-;-;0.2682422;1.2022998;9.982442;0.06954545;-0.06015944;-0.013678135;-14.55;35.850002;-41.550003;25.88802;-6.382062;2.072654;1020.7535;-;-;51.52506211;-0.1334568;1.9700000286102295
1531048431411;-;-;0.33530274;1.22625;9.800421;0.06315386;-0.05057206;-0.006753917;-16.650002;36.9;-41.550003;25.917341;-6.4321146;2.110858;1020.7535;-;-;51.52506211;-0.1334568;1.9700000286102295
1531048431421;-;-;0.38320315;1.1879297;9.503438;-0.010349384;-0.018081496;-0.00994971;-16.650002;36.9;-41.550003;25.917341;-6.4321146;2.110858;1020.7535;-;-;51.52506211;-0.1334568;1.9700000286102295
1531048431432;-;-;0.34967285;1.2070899;9.5561285;-0.063079976;0.027724875;-0.01740656;-16.050001;37.050003;-39.600002;25.934385;-6.4796324;2.1626031;1020.7535;-;-;51.52506211;-0.1334568;1.9700000286102295
1531048431442;-;-;0.3879932;1.2070899;9.580078;-0.11208214;0.058084913;-0.010482342;-16.050001;37.050003;-39.600002;25.934385;-6.4796324;2.1626031;1020.7535;-;-;51.52506211;-0.1334568;1.9700000286102295
1531048431452;-;-;0.3161426;1.2166699;9.685459;-0.14989902;0.076194406;-0.013678135;-16.050001;36.600002;-40.5;25.948399;-6.4021263;2.132566;1020.7535;-;-;51.52506211;-0.1334568;1.9700000286102295
1531048431462;-;-;0.3161426;1.2310401;9.901011;-0.2042275;0.114011295;-0.021667618;-16.050001;36.600002;-40.5;25.948399;-6.4021263;2.132566;1020.7535;-;-;51.52506211;-0.1334568;1.9700000286102295
1531048431473;-;-;0.21076173;1.2358302;10.126143;-0.21061909;0.11667446;-0.023265515;-17.7;36.45;-40.2;25.954967;-6.2640114;2.0562778;1020.7535;-;-;51.52506211;-0.1334568;1.9700000286102295
1531048431483;-;-;0.23471193;1.1687696;10.581197;-0.12220215;0.083118625;-0.016341297;-17.7;36.45;-40.2;25.955917;-6.206053;2.024101;1020.75836;-;-;51.52506211;-0.1334568;1.9700000286102295
1531048431494;-;-;0.31135255;1.0202783;10.643467;-0.00715359;0.025061715;-0.0094170775;-17.7;36.9;-40.2;25.966894;-5.981767;1.8915854;1020.75836;-;-;51.52506211;-0.1334568;1.9700000286102295
1531048431504;-;-;0.18681154;0.9915381;10.284214;0.07220861;-0.04045205;-3.6232988E-4;-17.7;36.9;-40.2;25.966894;-5.981767;1.8915854;1020.75836;-;-;51.52506211;-0.1334568;1.9700000286102295
1531048431514;-;-;0.07664063;1.0633887;10.035132;0.09670969;-0.06868156;0.0140187405;-16.050001;36.300003;-40.5;25.96769;-5.9433756;1.8494071;1020.75836;-;-;51.52506211;-0.1334568;1.9700000286102295
1531048431524;-;-;0.12933107;1.0825489;9.81958;0.08392652;-0.040984683;0.039052457;-16.050001;36.300003;-40.5;25.96769;-5.9433756;1.8494071;1020.75836;-;-;51.52506211;-0.1334568;1.9700000286102295
1531048431535;-;-;0.14370118;0.9915381;9.79084;0.05250122;-0.027668877;0.04224825;-16.35;37.2;-41.100002;25.952276;-6.045838;1.9092109;1020.75836;-;-;51.52506211;-0.1334568;1.9700000286102295
1531048431545;-;-;0.32572266;0.9915381;9.833951;-0.004490429;0.02399645;0.04011772;-16.35;37.2;-41.100002;25.952276;-6.045838;1.9092109;1020.75836;-;-;51.52506211;-0.1334568;1.9700000286102295
1531048431556;-;-;0.31135255;1.0873389;9.963282;-0.035915732;0.07140072;0.015084006;-16.050001;36.0;-40.050003;25.90298;-6.1033087;1.937224;1020.75836;-;-;51.52506211;-0.1334568;1.9700000286102295
1531048431566;-;-;0.3065625;1.1687696;10.044712;-0.042307317;0.09110811;-0.006753917;-16.050001;36.0;-40.050003;25.90298;-6.1033087;1.937224;1020.75836;-;-;51.52506211;-0.1334568;1.9700000286102295
1531048431577;-;-;0.32572266;1.2406201;10.063872;-0.024730453;0.06554177;0.005496625;-16.35;36.15;-39.9;25.86851;-6.0679293;1.875104;1020.75836;-;-;51.52506211;-0.1334568;1.9700000286102295
1531048431586;-;-;0.34009278;1.1831397;10.015972;-0.00715359;0.057019647;-0.00994971;-16.650002;37.2;-40.2;25.86851;-6.0679293;1.875104;1020.76324;-;-;51.52506211;-0.1334568;1.9700000286102295
1531048431596;-;-;0.4167334;1.1831397;10.030342;0.0029664224;0.04050805;-0.008884446;-16.650002;37.2;-40.2;25.861275;-6.0302687;1.7909842;1020.76324;-;-;51.52506211;-0.1334568;1.9700000286102295
1531048431607;-;-;0.18681154;1.0873389;9.800421;0.02640224;0.021333288;-0.0094170775;-16.050001;34.95;-40.95;25.864243;-6.0346866;1.7538044;1020.76324;-;-;51.52506211;-0.1334568;1.9700000286102295
1531048431617;-;-;0.14370118;1.1112891;9.690249;0.01202117;0.006419585;0.011355579;-16.050001;34.95;-40.95;25.86862;-6.039946;1.7466866;1020.76324;-;-;51.52506211;-0.1334568;1.9700000286102295
1531048431627;-;-;0.12933107;1.0250684;9.637559;0.01202117;-0.0031677946;0.023606122;-16.050001;34.95;-40.95;25.86862;-6.039946;1.7466866;1020.76324;-;-;51.52506211;-0.1334568;1.9700000286102295
1531048431637;-;-;0.17244141;1.0442286;9.666299;-0.00715359;-0.006363588;0.034258764;-18.300001;37.5;-41.550003;25.867788;-6.0664544;1.7283103;1020.76324;-;-;51.52506211;-0.1334568;1.9700000286102295
1531048431648;-;-;0.21555176;1.0106983;9.75731;-0.022067294;0.00269116;0.033726133;-15.6;35.850002;-38.7;25.847261;-6.0698605;1.7336668;1020.76324;-;-;51.52506211;-0.1334568;1.9700000286102295
1531048431658;-;-;0.27303225;1.0011182;9.74294;-0.028991511;-0.0037004268;0.027334547;-15.6;35.850002;-38.7;25.840282;-6.0651903;1.7347388;1020.76324;-;-;51.52506211;-0.1334568;1.9700000286102295
1531048431669;-;-;0.3065625;0.96758795;10.030342;-0.028458878;0.0042890566;0.014551373;-17.550001;37.65;-41.25;25.816633;-6.0440774;1.7375456;1020.76324;-;-;51.52506211;-0.1334568;1.9700000286102295
1531048431678;-;-;0.26345217;0.9915381;10.073453;-0.008218855;0.0058869533;0.0023008313;-17.550001;37.65;-41.25;25.812468;-6.0371532;1.7370194;1020.76324;-;-;51.52506211;-0.1334568;1.9700000286102295
1531048431688;-;-;0.19160157;0.9532178;9.85311;0.0013685256;0.008550114;0.008159786;-17.550001;37.65;-41.25;25.812468;-6.0371532;1.7370194;1020.76324;-;-;51.52506211;-0.1334568;1.9700000286102295
1531048431699;-;-;0.27303225;0.977168;9.814791;0.009890641;0.018137496;0.0023008313;-15.150001;34.95;-39.300003;25.800508;-6.019186;1.7362899;1020.76324;-;-;51.52506211;-0.1334568;1.9700000286102295
1531048431709;-;-;0.34967285;0.9867481;9.75731;-0.0034251644;0.015474333;7.029346E-4;-14.55;35.100002;-38.7;25.7947;-6.0249157;1.7255938;1020.76324;-;-;51.52506211;-0.1334568;1.9700000286102295
